time,gyro_x,gyro_y,gyro_z,accel_x,accel_y,accel_z,mag_x,mag_y,mag_z
0,0.0004976948941237691,0.00028762937329789685,0.0017908515894067903,0.00030518180029247044,5.84396390935169e-05,-9.809932747119726,0.9999988705480274,1.000000310950349,-5.419371238886832e-07
0.001,0.0008257134740225557,-0.0013846325068720597,0.00011146567127744036,0.00011504406060807706,1.1353729574512963e-05,-9.809937509376724,1.000000008839102,0.9999994688042491,7.690628114444484e-07
0.002,0.00017642957446465318,-0.0015305841862171914,-0.0006466711886798595,4.719857629403979e-05,-0.00016936823248215734,-9.810051824249403,1.0000003819804304,0.9999995569173544,-2.3295770700652288e-07
0.003,0.00010184526263053186,0.0003871177945910666,0.0005255890822820636,2.8912035127639585e-06,7.097040441757553e-05,-9.809886961835574,1.0000001281418398,1.00000033943182,1.0411715145906205e-06
0.004,0.0008141969166042314,-0.0006859568596042485,-0.0008592779410869846,7.914094949458488e-05,0.00010151690964316916,-9.810085325046305,1.0000010190258515,1.0000002085344026,-7.38598375775559e-07
0.005,0.0016327015790382764,0.001229350772644308,-0.0010699844846565312,-0.00017366736147847504,-2.2246406864448637e-05,-9.809971083053293,1.0000004114733045,1.0000010499006118,-6.376804863857889e-07
0.006,-0.0018312509119154043,0.001531371963891849,-0.00154337021940824,9.539774769519465e-05,-0.0001790539723652101,-9.810090445694211,1.0000002618904125,1.0000008064078563,-1.1144070760041849e-07
0.007,-0.0011147615880927274,-0.0005762162174442559,0.00042925453700888344,-3.646930383345358e-05,-9.538181735328601e-06,-9.809993902961386,1.0000002478580037,0.9999999071720325,-8.692468508005731e-08
0.008,-0.00015371896161210874,0.0010847432036733546,-0.00037399315322127734,-3.6645071824071144e-05,0.00028673785026097395,-9.809988403764015,0.9999999300371256,1.000000322438175,-4.187142968886281e-07
0.009000000000000001,0.0008320519599876515,-0.0005422759661952387,0.00031496381210941284,-8.14308118811319e-05,-3.5186427746712444e-06,-9.80995005355877,0.9999996126504234,0.9999996391095736,-5.140289598764814e-09
0.010000000000000002,0.000645666022107446,-0.0010472564267810685,-0.001599233374633327,0.000101863098323911,-5.9201702459262685e-05,-9.809983290297522,0.9999995172070124,1.0000006908159864,-4.17655708517357e-07
0.011000000000000003,-0.00043564123275224815,-4.5307690588857684e-05,0.0013001395788532996,-6.560838022449439e-05,-3.703649696566121e-05,-9.809921526632548,0.9999995512453576,1.0000005435115829,3.2942571225758035e-07
0.012000000000000004,0.000505147753632558,-0.000105109952738044,-0.0014273503884655184,-0.00011987811290164826,-1.7791415908930617e-05,-9.810023446173187,0.9999998392009347,0.999999765663405,2.0762304677715438e-07
0.013000000000000005,0.00021798045431766283,-0.0009814900154852945,-0.0033889107371462487,-2.5370319329551177e-05,-5.1076518880116266e-05,-9.810040687890579,0.9999999156834304,0.99999985928186,3.1152123687109706e-07
0.014000000000000005,0.0005519184335514014,-3.55355304519057e-05,0.0005174099332112198,-0.00022614821697792005,-1.3027439488315965e-05,-9.809984041510067,1.0000000763507355,0.9999992912143251,1.249765955819468e-06
0.015000000000000006,-0.0004095022111372217,-0.0008552382818306551,-0.0017022190665509347,9.665150328601689e-05,-0.00011044357597979806,-9.80996330154281,1.0000004671413332,1.0000009548853066,4.4856912328033116e-07
0.016000000000000007,-0.001286559051646132,0.0009653115971402892,6.66439155764874e-05,7.845567404755527e-05,-6.066443148968366e-05,-9.809848898884807,0.9999991984329322,1.0000005407299255,1.3400276280024546e-07
0.017000000000000008,0.001165031773934249,0.0023084248514541462,0.0003069151350957203,-3.7618351405510625e-05,0.00014335346033992762,-9.809962507361595,1.0000002288364882,1.0000001380026096,-5.897412970545577e-08
0.01800000000000001,0.0030759203859399946,-0.000351243121055092,-0.0022098543900102947,7.611925710781649e-06,1.7562230004705998e-05,-9.809804045745993,0.9999995390116679,1.00000032078767,4.4179083075818214e-07
0.01900000000000001,0.00015482237798714366,0.0005252033279560272,-0.0006133877847687832,-7.196155559559653e-06,-0.00010698808354844132,-9.809960252725755,0.999999755885837,1.0000005643321281,-3.733987889826188e-07
0.02000000000000001,-0.0005225790081209334,-0.00021365030051479725,-0.00030773952242157184,-6.342841637181163e-05,0.0002031529763974299,-9.810105498530815,1.0000008683981447,1.0000008147208652,6.066516891287219e-08
0.02100000000000001,0.0005214247695302873,-0.0022099829421687077,-0.00010614681851937727,6.533903869412495e-05,-0.0001668231633574668,-9.80994948905507,1.0000001003102272,0.9999999146386988,-7.931547413619294e-07
0.022000000000000013,0.00017561917679770144,-0.0007971816831498083,0.0003894146511064331,0.00013532194012015207,-4.220570954996837e-05,-9.810072237299849,0.9999997373270932,0.9999991239778425,-2.266344941801545e-07
0.023000000000000013,-0.000929070576468356,-0.00044030835231990913,-0.001153396458963084,-6.380073348950751e-05,-9.409132399637171e-05,-9.80993675123484,1.0000011811853893,0.999999554671565,2.747715135853766e-07
0.024000000000000014,0.0005578203399103821,-0.00011345826792304945,7.477467712959545e-06,5.2716798798646235e-05,7.775310183705643e-05,-9.809834883144584,0.9999999473169762,0.9999995134418328,5.252235372516617e-08
0.025000000000000015,-0.00024836898407878645,0.00038112373959666167,-0.002430980971177173,-0.00014016763861785403,-6.0527201864711604e-05,-9.809995627067899,0.9999998485710807,1.0000007743681048,5.219646972929172e-07
0.026000000000000016,0.0012901554717945603,-0.0009510614142162208,-0.0013995822179331927,4.677562247315015e-05,6.888552773058422e-05,-9.810087935878059,1.0000003115519598,0.9999996581963884,-4.618610889054044e-07
0.027000000000000017,-0.0002439693713013232,-0.00027619118886438904,0.0011831271664545272,9.183654419937875e-05,-8.667522085074991e-05,-9.809801194590769,1.000000239697767,0.9999993172196125,1.4113086653334797e-07
0.028000000000000018,-0.0010694067048375026,0.0008437425602326573,0.0014075226899052506,1.3418066287460504e-05,2.8644879526180845e-05,-9.809939416666644,0.9999992885460585,1.0000006503869123,-7.16081738403927e-07
0.02900000000000002,0.0004500017455866927,-0.0014934864644262696,-0.002039738182672419,-5.9243857271628754e-05,-5.6668969401082695e-05,-9.809974385242631,0.9999992328535499,0.9999986862994292,1.017021386726684e-06
0.03000000000000002,0.0004466486469882446,-0.0009549681821528107,0.0007238023212566945,-1.4415409644979095e-05,0.00010293505058710664,-9.810063612169051,1.0000004086328147,0.99999967052765,2.2486821154997012e-07
0.03100000000000002,-0.0007217318289944788,0.000454273522646151,-0.0002352669843992149,0.00013314229018329617,8.623431147066754e-06,-9.809865457376231,0.999999694525603,0.9999998724581267,-1.6296260070544473e-07
0.03200000000000002,0.0001202406305642012,-0.0008287696617250765,0.000555148305278741,8.826368548049567e-05,-3.0147394151387314e-05,-9.809866130186114,1.0000000154167346,1.000000905268157,-6.162138549417417e-07
0.03300000000000002,0.00021290771124099023,0.00031145315003864904,0.0010264215067890042,0.0002606066464197187,-0.0001995256257026781,-9.810044432012443,1.0000002211261152,0.9999997676126762,-8.030126129022968e-07
0.03400000000000002,-0.00037189149072358623,0.00019931180335944535,0.0005547240591904527,8.820108190213832e-05,-2.9082913240691755e-05,-9.809955338021462,1.000000727288385,1.0000005167656247,8.973966864284656e-07
0.035000000000000024,-9.959270169979155e-05,-0.000939028169344609,-0.00017214691218074863,4.3448633519870774e-05,5.96270380336723e-05,-9.809769839870846,1.0000000843906445,1.0000007334166212,8.750752742549384e-07
0.036000000000000025,0.0004697040695821173,0.0006490579459180097,-0.001022903646871545,8.317078333648057e-05,-1.315375374832382e-05,-9.810125712220882,0.9999991567906988,1.0000011497532162,-2.8741346080170404e-07
0.037000000000000026,-0.0022555914218229493,-0.0008103358459449453,0.0005350811105060758,-0.0001279444824947457,-3.318964901662606e-05,-9.809876143925782,0.9999998607146615,1.0000011493619085,2.967266884824126e-07
0.03800000000000003,0.0012524595385666514,-0.0012583415142634036,-0.0015543203204614743,0.00013999743573187988,1.4368350973022118e-05,-9.809941696637454,0.9999997772187044,1.000000394624268,5.612752678728464e-07
0.03900000000000003,-0.0013750962647945454,-0.000486026815292692,1.8176243754172998e-05,-1.2680538503138085e-05,-4.102685206110519e-06,-9.81020927434127,0.9999998016855582,0.9999999374430547,-1.7425195497837515e-08
0.04000000000000003,-0.0004276222921699882,0.000341301690156641,-0.00033350915818936987,-8.467002790826762e-05,2.655772932547596e-05,-9.809952815374196,0.9999995834118045,0.9999999635240726,-7.546566240036334e-07
0.04100000000000003,-0.0010035776026458844,-0.0009466980729541258,-0.0003119494405641639,-0.00010277792266638253,0.00012459612402992884,-9.810082764102406,0.9999998551482904,0.9999998753688545,2.553822622492647e-08
0.04200000000000003,-0.00122280727931367,0.00048440308055775573,-0.0003473478598424308,-6.411551020583635e-06,-7.88712596441491e-05,-9.810063828463212,0.9999999430472463,0.9999997586738466,-1.3488366890300192e-06
0.04300000000000003,-0.0020844924160224945,-0.001358159247513968,-0.0011403030329261497,-8.850810453846863e-05,-0.00015664302778688074,-9.810018872993984,1.0000006282023548,0.9999996661940082,2.046205250246901e-07
0.04400000000000003,-3.437996814642725e-05,0.0005158602786007423,-0.00022540945482706364,-0.0002212207224593235,-7.6004107242186e-06,-9.809993145865537,0.9999993977313589,1.0000000698225808,-7.5818948279837e-07
0.04500000000000003,0.000652155070242226,-0.0003787200057791106,1.4592662596722239e-05,5.6287476847371456e-05,0.00010346234990095164,-9.809926416972434,1.0000008660580542,0.9999998857662611,4.6159281866588426e-07
0.046000000000000034,-0.001338505936685447,-0.0010503980350718796,-5.93460140424522e-05,-1.0173268209854668e-05,4.869394705355251e-06,-9.810171640275174,0.9999999357755945,0.9999994952738084,5.99131920567992e-07
0.047000000000000035,-0.0024017112063536785,-0.002497081670928658,-0.0008372648653336835,6.985489510954359e-05,0.00014178163471393812,-9.810053788735807,0.9999993896838183,0.9999995808523543,3.1791185941805855e-07
0.048000000000000036,-0.00014597545265635582,-0.0014402772304915375,-0.0006819769567460707,-7.166315312069488e-06,-9.266265854363179e-05,-9.810067565403578,0.9999994399713527,1.000000230465636,-3.2106386799152755e-07
0.04900000000000004,-0.0023884968976539645,-0.001194042390974925,-0.0007349204945971993,3.990274798140153e-05,0.00012199829015943852,-9.80998063946487,1.0000003222392835,0.9999996796614913,-2.920873451730091e-07
0.05000000000000004,0.0008473753103230052,0.0014970010527185031,-0.0011591175206219855,2.5210051469718875e-05,0.00011261494009515419,-9.81001316010951,1.000000098296699,1.0000002172684799,-8.492783088700357e-07
0.05100000000000004,-0.0011515824133801465,-0.0019035250272868985,-1.1922855868259767e-05,-4.3176408288278566e-07,1.6332226387662586e-05,-9.810008963503684,0.9999994490598845,0.9999998167596894,-9.329463788370343e-07
0.05200000000000004,-0.0007395362115686063,-0.00038933188393905897,0.0003748229748767448,3.507918852531799e-05,-3.260391742056496e-05,-9.809927294163096,1.0000007528580679,0.9999998244781245,-3.6935985992344843e-07
0.05300000000000004,0.0001971966620065576,-0.000786706460534922,0.0014433115645366714,3.6786296602009504e-05,4.5528984947320076e-05,-9.80990346281421,1.0000003656201681,1.0000000974466916,2.041764225321916e-07
0.05400000000000004,0.0005054305298838452,-0.0010037946076752226,-0.0009958118018075885,2.0830988519568615e-05,3.108196403008594e-05,-9.809935785547198,0.9999997782067787,1.000000035135932,8.43573631619325e-08
0.05500000000000004,8.548714109868252e-05,0.0008222226845568141,-0.0008488993896932375,-0.00018359826858595018,-7.494346835583322e-05,-9.810049283386933,1.000000005575403,0.9999995032548927,3.1633141923208294e-07
0.05600000000000004,-0.001118962247036506,0.0017248904253296398,-0.0017389822645876667,-0.00026714921729311314,3.232568989504219e-05,-9.809975794469992,0.9999997797928026,0.9999999535382372,-4.431830004467405e-08
0.057000000000000044,-0.001357075288254377,-7.833533540921647e-05,-0.001832395472023258,6.701213595652763e-05,4.517963139259707e-06,-9.810254984309758,1.00000031066318,1.0000003074188233,-1.0137644450288802e-06
0.058000000000000045,0.00011195468656945693,-0.00013967697843277776,-0.0009773042375387517,4.2395839734707046e-05,1.1706751795127035e-05,-9.809916739996758,0.9999999105784506,0.9999995480080723,-4.1098990871997714e-07
0.059000000000000045,0.0002938472449810364,0.00018218893034127799,-0.002552321169822639,3.882070509042145e-05,5.956045597676704e-05,-9.810005521359319,0.9999998997633862,1.0000011547887802,2.5913601775755533e-07
0.060000000000000046,-0.0037327392410523392,-0.00015894776484525814,-0.001237565963056888,6.345075056912525e-05,-5.891675959149519e-05,-9.809996270351958,0.9999989935625174,1.000000489987472,4.5164038596388545e-08
0.06100000000000005,3.947871454255069e-05,-0.0005350403599808904,0.0005940732795929878,0.0001286304302231819,-6.64129768468759e-05,-9.810137841169002,0.9999995399509466,0.999999549128931,7.687735303513879e-07
0.06200000000000005,0.0006708812188239077,-0.0011754926073769855,-0.0006715804926960963,-4.7680794218434526e-05,-1.8007834345604215e-05,-9.810058139169143,1.0000008561164075,1.0000004070375108,4.907714858865694e-07
0.06300000000000004,-0.0008801896277926706,-6.873351786299442e-05,-8.529653762965586e-05,-5.5946828436798195e-05,-0.0002041230633360351,-9.809972447893903,1.0000001751516654,0.9999996003440484,2.2155144387442124e-07
0.06400000000000004,-0.0017396996662802817,0.001292207580256728,0.0015202887561691133,0.00010927615894396274,1.4740345263467246e-06,-9.809989827065499,0.9999999448863419,1.000000348919309,1.9827751833783348e-07
0.06500000000000004,-0.0013252695461352638,-0.00030177835645429994,0.0007975305872101727,1.4903535545573294e-05,6.292048755299071e-05,-9.809896556978307,0.9999997667165446,0.9999998943095518,-6.640369364793612e-07
0.06600000000000004,-0.001488697347164108,0.00030015624010381237,-2.0408465379463236e-06,-4.665210887147129e-05,-9.080053968609746e-05,-9.810248470233772,0.9999996276093307,0.9999989069679949,-2.556702524016746e-07
0.06700000000000005,0.001408684783790499,-0.0021719445554580635,0.0010736573086954772,4.836776112223992e-05,-0.0001519159411420952,-9.810000534155325,1.000000325064778,0.9999993155524034,-2.07394003480542e-07
0.06800000000000005,9.429031955480028e-05,-0.002002527799718523,-0.0018175493020224052,-3.4103077047898676e-05,-9.47387259328657e-05,-9.809993977328839,0.9999994577380961,0.9999994170520818,-1.0836837910676856e-06
0.06900000000000005,-0.00036298166412947544,-0.001181866183580362,-0.0006683629424875428,-5.01618552241773e-05,1.321938545843327e-05,-9.809959210669568,0.9999998789516282,0.9999995800801172,5.054584446002143e-07
0.07000000000000005,0.0012687496912560158,-0.0005282374939613625,0.00017540544182071652,0.00010808248097225235,-4.532607076980211e-05,-9.810176156654789,0.9999999838688479,1.0000002251715219,-5.623443892043313e-07
0.07100000000000005,-0.0011222701765053976,-0.001166442941151505,-0.0015544528987997217,1.0653313842576667e-05,5.9526619132625585e-05,-9.810046636202884,0.999999218859901,1.0000001211379423,5.024750526967276e-07
0.07200000000000005,-0.0014457369471812997,-0.0009471063828929726,-0.0006393531590003689,7.006441176491096e-05,-0.00011334518622337711,-9.809878863461288,1.000000526328533,1.000000399955822,-5.086441172988467e-07
0.07300000000000005,0.0005358301769399097,-0.001248031972216468,0.0007386339116240884,2.1284692861116924e-05,-7.351926916779425e-05,-9.809916579406291,1.0000004063251615,0.999999285575349,-2.678069194505948e-07
0.07400000000000005,-0.0021615553798438464,-0.0022737128208347645,-0.000809142166258283,-3.614624396327732e-05,-0.00024015837987348385,-9.810021361201573,1.000000713091698,0.9999994374271762,-9.102050672123785e-07
0.07500000000000005,-0.0006541995821763674,-0.0007703188370842964,0.0007110349745107996,0.00012006659564933755,-0.00010069491665501191,-9.809996409329752,0.9999997099325771,1.0000009067668592,-6.746984503360691e-07
0.07600000000000005,-0.0012631097111024064,-0.0010637761732149448,0.0007395696724326165,2.803798031701027e-05,-6.700720527236992e-05,-9.810148177561478,1.00000070069167,0.9999992378533339,-6.944627758954317e-08
0.07700000000000005,-0.0010404867376046876,-0.0004371752467686698,-0.000790752368775706,-3.4295961237449896e-05,2.7597115387952198e-05,-9.80987418362797,0.9999999497841405,0.9999997028569125,3.932064730225558e-07
0.07800000000000006,-0.00021536952412871935,-6.509081572547747e-05,-0.001758783189419938,-7.372126295609773e-05,4.001007814273835e-05,-9.810017026190692,0.9999998734606033,1.0000000074324837,-1.6000518722871073e-07
0.07900000000000006,-0.0005954157472015437,-0.00020982898380612935,-0.0011908560324280087,1.972053071374628e-05,4.651805795712892e-05,-9.810133325549522,1.0000001463653192,0.9999996993780106,-5.86251286189365e-07
0.08000000000000006,0.0003000465505640387,-0.0020250004102929558,0.0015524364762689131,-2.8327313655916817e-05,-3.141806371080616e-05,-9.809951343865517,1.0000003942206808,0.9999991739099678,1.6206949476527067e-07
0.08100000000000006,0.00021010837812186019,1.982433325274733e-06,0.00010159443951556608,7.283232412945717e-05,8.494440008967173e-05,-9.809961020694903,0.9999997030098875,0.9999996873624353,5.439914274512128e-07
0.08200000000000006,-0.0003476853974911041,0.0001702653680630828,-0.0013994475958737426,-2.223550053954691e-05,3.116227429693056e-05,-9.810026115311492,0.9999999145287846,0.999999442720577,-3.6028656097493335e-07
0.08300000000000006,-0.0007768203743987945,-0.0007644325370279264,4.2428551029699796e-05,-0.00016388830224069796,0.00010560137502266827,-9.80994023669303,0.9999999907260674,0.9999999144269662,2.2965673684856978e-07
0.08400000000000006,0.0002902927175521913,0.0005236930446313036,-0.0010773888345699657,4.510174537729574e-05,8.603478518684833e-05,-9.810110950191623,0.9999999738892933,1.0000004525235764,1.9113532947341526e-07
0.08500000000000006,6.6788100392524506e-06,0.0007472343282815367,-0.0015097876525338313,6.929432718504908e-05,6.996761245705427e-05,-9.809922689212422,0.9999995578904671,0.9999996396158252,-4.829682422154287e-07
0.08600000000000006,-0.0021187188166597202,-0.0017483010839092392,-0.0008635135493956657,-4.042583955487682e-05,-0.00011598493660923329,-9.809894356305541,1.000000225837184,1.0000004781312168,-2.023239901613356e-07
0.08700000000000006,-0.001140130410524197,0.0004424515453697195,-0.00010165340484133824,-0.00013004956675391878,-5.529354142565615e-05,-9.810034070780073,0.99999898249565,1.0000003345613453,2.1447620368014886e-07
0.08800000000000006,-0.0007205205583992378,-0.0016389247592968627,-0.00021980810817947899,0.00016055065582493765,3.284685930074593e-05,-9.810040815933439,1.0000002681021691,0.9999999968253082,-2.1120929916331385e-07
0.08900000000000007,-0.002064946428510871,0.0015549799571855406,-0.0007414439199637912,2.0336285865733378e-05,-7.128379136537085e-05,-9.810013679205356,1.0000005048761984,1.0000015059830993,-6.292989725267221e-07
0.09000000000000007,-0.0006546433727039557,-0.0012875938040253555,-0.0011780413206788928,5.8456453055338414e-05,-3.4363268757113226e-05,-9.81003138093662,1.0000000065697499,0.9999994345226713,1.5927200805562378e-08
0.09100000000000007,0.001971377286169974,0.0001890278339358269,-0.0013443081441224807,-9.388367369613346e-05,-5.745741400518778e-05,-9.809910153094963,1.0000008445174773,1.0000004277125405,1.4063037378075552e-07
0.09200000000000007,0.00022594311727411277,0.00015709609178696606,-0.0007301891389395515,0.00012460803008153436,-1.8799028751197204e-06,-9.810228076303293,1.000000868557198,0.9999998589365492,-8.834411185881072e-08
0.09300000000000007,-0.0017084417703329847,-0.000689103097331541,0.0006304868973191755,7.902178085236577e-05,1.3911148191096829e-05,-9.809969081714186,1.0000002379972068,1.0000004510154352,3.9433136546357736e-07
0.09400000000000007,-0.000226670240643908,-0.0002573680240994285,0.0006890550142150508,-0.0001271103408645671,4.3300213049337783e-05,-9.809974439139323,0.9999998541235686,0.9999993796067167,-7.341703225763862e-07
0.09500000000000007,-0.0019060789444131326,-0.0016056369765664667,-0.002095734875574022,1.0712537081983937e-05,-0.00022346516310992528,-9.810025032576114,0.9999996329588257,0.9999995140009463,1.544909827447763e-08
0.09600000000000007,-0.0007171721951295718,-0.002756261577872837,-0.0008842679507127364,-4.912526674827468e-05,-3.970464371331877e-05,-9.809959357217442,1.0000011062545706,1.0000003486883433,2.9290801728720415e-07
0.09700000000000007,-0.0021645245385124535,-0.0002683692680664029,-0.0011733650483257679,-4.596812174339114e-05,-4.5723108199986354e-05,-9.810117685370372,1.000000166104572,0.9999998871697422,-1.602101578732305e-07
0.09800000000000007,-0.0024423605301963896,-0.0005426514377473935,-4.7536662544415964e-05,-8.448961189814036e-05,1.4350043882484165e-05,-9.809793935726338,0.9999998746835623,1.0000001481260405,-8.139272997111643e-07
0.09900000000000007,-0.001621196861649931,-0.0007928435724645582,-0.0023379987369501077,3.422360761070591e-05,-9.633134824020604e-05,-9.809964291537879,1.0000002234192973,1.0000002566074466,-4.155759317783613e-07
0.10000000000000007,-0.0009046114924620484,-0.0009334732229252526,-0.0008005646161711028,-5.3543103179488464e-05,-0.00010987881440832534,-9.810120612736686,0.9999994147211589,0.9999991114918882,-2.215776071117093e-07
0.10100000000000008,-0.000673250496450592,-0.0006764244112935088,-0.0017095916205067446,2.6147986413568315e-05,-3.494814239545327e-05,-9.81001304353109,0.9999998473386199,0.9999994732461168,-5.641017323649307e-07
0.10200000000000008,-0.00039862491546386453,-0.0018379934723939649,-0.0003117255510216338,0.00010941352032948689,0.00011113848113599867,-9.809949627418803,0.9999999356534911,1.0000001247075883,1.7197994990074257e-07
0.10300000000000008,0.0004374269503129916,-0.002299142099368539,-0.0006281191850103458,0.00026906090421910633,1.742857650227378e-05,-9.810209395392747,1.0000004670315614,1.000000138738214,-1.7487990675237889e-07
0.10400000000000008,-0.002627034432332689,-0.0010121591732239214,-0.0006667573691552639,0.00011264840930492853,5.584144691935348e-05,-9.809985542593477,1.00000093995701,1.0000001849645068,-1.3721540275975587e-07
0.10500000000000008,-0.0029328208482310098,-0.0009044891607261291,-0.0031870505300544047,7.511783458374835e-05,4.554586096086516e-05,-9.80998241305191,1.000000326800394,1.0000003943077382,6.024002439384455e-07
0.10600000000000008,-0.0011461263230944047,-0.0007423939253134372,-0.0016462245495818544,4.656156439010986e-05,7.038564734393604e-05,-9.809903762793518,1.0000010110135842,0.9999997639581435,-1.322131810541946e-07
0.10700000000000008,-0.0012600635322641423,-0.0014984561541828345,-0.0004879816197926502,-6.545299428788116e-05,-5.922130508201593e-05,-9.80985545963975,1.0000000655483863,0.9999991389899274,3.018145256445205e-09
0.10800000000000008,-0.002898350250951928,-0.0005588387231145011,-2.674786150093757e-05,0.0001606824121657849,-4.3563806367880064e-05,-9.810069969420391,0.9999997344301959,1.000000073840969,6.913688263055251e-07
0.10900000000000008,0.00018383970433162805,-0.0021823807780690283,-0.0004874882303994068,7.644258535605191e-06,2.187522712816247e-05,-9.809947568864544,0.9999991563499394,1.0000001738519042,6.4994912633673994e-09
0.11000000000000008,-0.0007182894872430985,-0.000770541221172654,-0.0019355053134416979,8.602615337795943e-05,-2.7442692684332154e-05,-9.810056170273558,1.0000003288841897,0.9999991122545954,-5.962353701289797e-07
0.11100000000000008,-0.0007460641968159599,-0.0023723849260884246,-0.00149827936541016,0.0002051530148046834,3.9312579313406686e-05,-9.810153337577251,1.000000212966656,1.0000000156278552,-1.3155012901489132e-07
0.11200000000000009,-0.0008147958556830103,-0.0009599955995508295,-0.0021911027789171863,7.44565848822199e-05,8.661848487403861e-05,-9.80996223571443,0.9999996644023484,1.0000008657423485,1.1272598001570615e-07
0.11300000000000009,-0.0026566265481679755,-0.0016368877361900814,-0.003049192065514671,-2.6317567613012184e-05,-0.00012677054072577945,-9.810028934650434,0.9999999038507232,0.999999809994948,5.743257712570585e-08
0.11400000000000009,-0.0017808809743214298,-0.0005358047934260733,-0.0015295442164072251,0.00017404804180412946,-4.355783106300284e-05,-9.809950335494936,0.9999999500876496,1.0000010111155309,2.459667057971076e-07
0.11500000000000009,-0.001442816886556557,-0.00035976314729552563,-0.0006276951801363997,-3.947813830558607e-06,-6.064409066616254e-05,-9.810074600653742,0.9999998399340554,0.9999998745904176,5.466119098361709e-07
0.11600000000000009,-0.0020957488384109628,-0.0016561377870672857,0.00031524538473007074,6.2354871653322256e-06,4.518160755769257e-05,-9.810053351379775,0.9999996888895186,0.9999996324260024,-1.4356506474938405e-07
0.11700000000000009,-1.8414401053188072e-05,-0.0011912320599070966,0.0003288285150653935,-0.00013832917451250403,-4.8321301194079165e-05,-9.810022459980194,0.9999990932642685,1.0000004993109988,-5.201703277921277e-07
0.11800000000000009,-0.001028176761529961,-0.00017481232146537135,-0.001257423157227436,-0.0001230058881221621,2.70309143315631e-06,-9.80994949065279,1.0000000942122753,0.9999995141368138,-1.263540991886862e-07
0.11900000000000009,-0.001820827996482503,-0.0004663290905250068,-0.0020662844647922466,-4.387624529617238e-05,-8.549837536180413e-05,-9.809932982712201,1.0000003060511733,1.000000399315485,-1.4838239185887905e-07
0.12000000000000009,-0.00019008072041659337,-0.0027014568392390833,-0.0010973412851059655,5.067495784455596e-05,9.971935281845675e-05,-9.809930948589981,0.9999999347462627,0.9999994825800562,-3.7009123795825254e-07
0.1210000000000001,0.00022724729103372888,-0.0005530263793276316,-0.0014830914883775567,9.032645389412766e-06,5.454652819475878e-05,-9.809990491962933,0.9999990447799203,0.9999994171509065,-1.2059876648601835e-07
0.1220000000000001,0.0014242860460778307,-0.0011181669368167339,-0.00037741759782179056,0.000127989044356468,-0.00019958799525489492,-9.809886493975693,1.0000002888109958,1.0000002374414896,1.4637169473591432e-08
0.1230000000000001,-0.0005539412422510589,0.00034816624814141195,-0.0008974869769472391,3.456679673709857e-05,9.862577743167622e-05,-9.809959617362006,0.9999999876753741,0.999999835197976,-1.011395908636912e-06
0.1240000000000001,-0.0006093096895585676,-0.0011578835284997652,-0.0013740819476013933,8.029614682310671e-05,4.899616075369927e-05,-9.809818030846014,0.9999990385485675,1.0000000695765205,-6.978226371414864e-07
0.12500000000000008,-0.0018484596233584952,-0.000949990689880565,-0.00038499203935055777,-7.919229890980648e-05,-8.6227093236917e-05,-9.810108289994156,0.9999997090999004,1.0000000057683054,2.2959178700815455e-07
0.12600000000000008,-0.0021909943963803165,-0.002695579848047074,-0.001249169939563903,-0.00011507590412889743,-3.675138658445925e-05,-9.809995446394897,1.0000001157948228,0.9999996556825262,3.730408455305303e-08
0.12700000000000009,0.0010899164637504827,-0.0017096612231109472,-0.0025679197715734728,2.0907817640887876e-06,5.758535466123243e-05,-9.809868183731172,0.99999964094096,1.0000004929845807,4.134754054875393e-08
0.12800000000000009,-0.002652330457909354,-0.0018215546334144155,-0.002193510730678524,0.00015640801097879762,-0.00013270512534255396,-9.810124393971225,1.0000004014258361,0.9999992283309783,2.4911261239519925e-07
0.1290000000000001,-0.0023897905344014043,-0.0006983918658570346,-5.230844398740027e-05,7.321638532453462e-05,5.04087458583082e-05,-9.810149859906554,1.0000007940347684,0.9999992950937052,-1.0987433398716748e-06
0.1300000000000001,-0.0011055025023020471,0.0002268978301995148,-0.0010273271375169195,-2.848570926026056e-05,-1.69630168497559e-06,-9.809935732552859,0.9999998607258338,0.9999990871797535,4.0962630367892914e-08
0.1310000000000001,-0.0021899866673064953,-0.0012603484855762883,-0.0028849585010052303,-7.878048369503428e-05,-2.4481596024585686e-05,-9.810042640600892,0.9999999603912024,0.9999998904908577,-5.570374837439013e-07
0.1320000000000001,-0.0015228884199530164,-0.00030022195531974436,-0.001411812777342168,-0.0001407662350848229,-0.00020604072468413258,-9.809959639025235,1.0000004689720523,0.9999997348138491,4.858048398777235e-07
0.1330000000000001,-0.0025599990912953466,-0.0006627983619667241,-0.001010283630508317,5.702247939460418e-05,3.621180008741836e-05,-9.810004847298519,0.9999999240755642,1.00000033021213,4.173573363786677e-07
0.1340000000000001,-0.0016073583650997962,-0.0017793593291911803,-0.0005706835541028554,-8.622211362028735e-05,-4.85509379486379e-05,-9.80990351524971,0.9999995629143851,1.0000003051327984,9.938119412631123e-07
0.1350000000000001,-0.0014503732312267036,-0.0010331883186524326,-0.0018098694508741687,-5.883919022124045e-05,1.2978302281997151e-05,-9.810181739733695,0.9999997003905,1.0000000141750076,-6.739050589380484e-08
0.1360000000000001,-0.0012392657882867024,-0.0023396055399312115,-0.0028282032892547604,5.331525780292186e-05,6.946691839312739e-06,-9.810028200496033,0.9999990118436222,0.999999612731184,-1.11885249272594e-06
0.1370000000000001,-0.00022483419706725003,-0.002853630544578786,-0.0008212310585036729,-5.44895616066325e-05,-8.744322420509577e-05,-9.809898913881549,0.9999998672291848,1.0000000861624456,5.57533008252468e-07
0.1380000000000001,-0.001909526488610924,-0.003409485806331795,-0.002385935276640272,-8.901157003536155e-06,-0.00010122875554398008,-9.809949817677666,0.9999998690436079,1.0000010658682676,-1.4570915692882409e-06
0.1390000000000001,-0.0019896951854283798,-0.0017348689563137245,-0.003161396552856948,4.5589767208501664e-05,-1.5855159078319866e-05,-9.81008951526511,1.0000003459142213,1.0000005077668808,4.0139401963354386e-08
0.1400000000000001,-0.0007939707400170603,-0.00126527448536234,-0.00021915002257279952,8.68721731179699e-06,-0.00027269260209822647,-9.809940672602115,0.9999998518499195,0.9999993503921477,1.9494897552583694e-07
0.1410000000000001,0.0004942804975601653,-0.0005016849183649808,-0.0019057196008851114,0.00010794975630913333,7.861508432724944e-05,-9.810314128647695,1.000000531411409,0.9999998261481785,3.552874445596213e-07
0.1420000000000001,0.0005077650416284113,-0.001470806336856489,-0.0008631482663265491,0.00024061384078398503,0.00013915255428479222,-9.80981713202401,1.000000111911824,1.000000355181018,5.756922468541744e-07
0.1430000000000001,-0.0016455826659115922,-0.00324101969585509,-0.0012314281890066045,7.529839815927338e-05,0.00014098157372178225,-9.809877653503348,1.0000002599475029,1.000000224341925,-9.477635858163309e-07
0.1440000000000001,-0.0010331971753064124,4.111379258735096e-05,-0.00043534572046798666,-8.457578384892673e-05,-0.00018034979244931714,-9.809828020585865,1.0000000681397372,0.9999999782574018,3.756853271485784e-08
0.1450000000000001,-0.001922046134823907,-0.0019481283746614706,-0.0009499848188204109,5.836423340385638e-05,-0.00015147255158184608,-9.810049413679614,1.0000008816643458,1.0000001071100098,-3.5963961919067903e-07
0.1460000000000001,-0.002855525588642308,-0.0010738804365118503,-0.0021213574497791414,5.760730731826485e-05,8.173035702569839e-05,-9.81023591961219,0.99999949848755,1.0000011036836685,-4.2233958432656496e-07
0.1470000000000001,-0.002061240213211266,-0.0014709099796442085,-0.0019648941654235473,6.134244238047894e-05,0.00013207997137097918,-9.810106966212036,0.999999495455061,0.9999997987677419,3.155608731677612e-07
0.1480000000000001,0.0008979156033156635,-0.0015089046064925462,-0.0025610432668207277,-5.107376053598665e-05,-3.218902593007246e-05,-9.809956390251836,0.9999997827617138,1.0000000859023883,-5.6301239267465975e-08
0.1490000000000001,-0.0035252895198615167,-0.0008212743539854944,-0.0012397923790728018,0.00015956043883200431,7.569550271968423e-05,-9.80991921805925,0.9999997866793743,0.9999991582952708,1.543392120462776e-08
0.1500000000000001,-0.0032566038236905553,-0.002838863266421433,-0.0009825295094488375,-0.00010095015365941301,-9.32882902467321e-05,-9.809890322278786,1.000000563208933,0.9999995938820931,1.201661766603292e-07
0.1510000000000001,-0.0006237448854526071,-0.0003976294487918236,-0.0014910746874524676,-6.737882236776326e-05,-2.6603566456563986e-06,-9.810118213470208,0.9999999786931136,0.9999997448621059,-2.329264142148491e-07
0.1520000000000001,-0.00226161165790934,-0.0031901315253583494,-0.0014158846411061485,0.00011092029110688869,7.006518370703845e-05,-9.81018997507585,1.000000144790892,0.9999997387717855,-4.262989147299691e-07
0.1530000000000001,-0.0013750719502139117,-0.0017631429715356303,-0.002025934772565611,1.5455448370129958e-05,-5.1359683464531106e-05,-9.81004477368268,0.9999995818267017,1.0000006666117733,1.9634793953655132e-07
0.1540000000000001,-0.002669710227861123,0.00013116362900195675,-0.002137934354406698,4.4318016060631034e-05,-5.269672623672915e-05,-9.810085838080196,1.0000001182346365,1.0000000974224372,-5.198356164936293e-07
0.1550000000000001,-0.0020387957072622942,9.350165918713344e-05,-0.0026636082724431315,0.0001232733397211154,-6.475441720752175e-06,-9.809985598912393,0.9999996709764117,1.000001326994725,-1.0975638667963316e-06
0.1560000000000001,-0.0010131101805014222,-0.00142345463867449,-0.0007453579337916371,0.0001586919924725697,9.658225886481925e-06,-9.809955310926775,1.0000006098218557,1.0000005788657165,-3.1225291524971346e-07
0.1570000000000001,-0.0018851403945029294,-0.0003519621512464307,-0.0009288502626732334,5.008542904672494e-05,5.645527035700131e-05,-9.80993112428648,0.999999936181276,0.9999996762951121,4.030331940239194e-07
0.1580000000000001,-0.00032945970176732594,-0.0005567911609441764,-0.0016510429779201577,-9.388023718564439e-05,-0.00011969662382929134,-9.810104169597842,1.0000003288163164,0.9999993342915111,-3.465545018568538e-07
0.1590000000000001,-0.002161795394781055,-0.0008473390369504569,-0.0004116378105936977,8.263664167187544e-06,-9.605447588933774e-05,-9.809929850679849,0.9999998389835135,1.0000010127656314,-2.0672989204379317e-07
0.16000000000000011,-0.0029280505213532763,-0.002992098347946254,-0.0008654352164610754,-0.0002864566086284085,-0.0001120664895343845,-9.810033816485813,0.9999991287237844,0.9999996183046828,1.2938080036565933e-08
0.16100000000000012,-0.0016526053695701953,-0.0011854887601708795,-0.0030735777769177416,-2.1952702420372964e-05,8.870732634340051e-05,-9.809908602141567,0.999999647681961,0.9999997864379632,-9.123848188911656e-08
0.16200000000000012,-0.0006377621823959643,-0.002075890096705393,-0.0028758886377090427,-8.26458903957929e-05,2.3032697802862875e-05,-9.809966005616179,0.9999990401218986,0.9999997259236529,-1.912057775094048e-07
0.16300000000000012,-0.0021236043002182707,-0.0010234550064905585,-0.00202043239517639,-0.0001749137287997846,-0.00017480420044778714,-9.809815319694641,1.0000000532405144,0.999999731134173,-1.1626431665099017e-07
0.16400000000000012,-0.001493860839186196,-0.0011181162701678756,-0.0021096152666691867,-0.00010035478923965549,-7.747563101483449e-05,-9.810143007422782,1.0000007154242085,1.0000002783041704,-1.464514701566102e-07
0.16500000000000012,-0.0007617538916073668,0.0002727650527786301,-0.0011117059072430638,0.0001602265876904398,-5.674443825984941e-05,-9.809903906359738,1.0000000000470166,0.9999993622769098,2.032556362909791e-08
0.16600000000000012,-0.00032761889607531487,-0.00107126913283122,-0.0014832984118468135,0.00011250702127829188,0.00013814375903279573,-9.809965124302202,0.9999996781524934,0.9999995709035047,-8.782732302985644e-07
0.16700000000000012,-0.00047465561677074693,-0.0008859707535954429,-0.001973074991521679,9.137748844040627e-06,-6.543566548937705e-05,-9.81000981810545,1.0000004319532954,1.0000000235691437,-3.3377811762781697e-07
0.16800000000000012,-0.00017013196405764558,-0.0036715348461922015,-0.0003627428899783251,3.455843706072243e-05,-3.268393067287386e-05,-9.809966128724653,0.9999998885242676,0.9999999906314917,7.910855363781413e-07
0.16900000000000012,-0.0016367371320983647,-0.0018413865822304585,-0.0023495282994138193,-7.449917139426009e-05,-6.52308877370822e-05,-9.810009769840033,1.0000007200382133,0.9999997447212801,2.845976365032469e-07
0.17000000000000012,-0.0020804950368813763,-0.0023023927458711716,-0.000409558324895997,-4.186705598056117e-05,4.79893745302059e-05,-9.810004716144674,1.0000003100670543,0.9999999853214956,-2.023728923427267e-07
0.17100000000000012,-0.0021447808247975816,0.0009175941859450147,0.00010715230493441486,-0.00019454878761701144,0.0001031585984854553,-9.810080275336924,1.0000001438263215,1.0000001783708763,-7.583682633969133e-07
0.17200000000000013,6.800830171036312e-05,-0.002412962333776879,-0.0015626952966433425,0.00011688735997855291,0.0001257145065068063,-9.809864899406511,1.000000192311217,1.0000003853380255,-6.667022516597159e-07
0.17300000000000013,-0.003088794265242589,-0.003164838525749408,-0.0014197541558975968,-0.0002148820362384237,0.00015643398951161366,-9.809889399925382,1.0000002246304538,0.9999999997605216,2.1903583449196522e-08
0.17400000000000013,-0.0016124047057057274,-0.0036575383318514613,-0.0034698245077625237,3.40474931091055e-05,1.1971932913862141e-05,-9.810016254507428,1.000000160631665,1.0000002251871094,2.1406234340057652e-07
0.17500000000000013,-0.0021624673483460932,-0.0027176650258913084,-0.0014177057837654787,-6.019974432769387e-05,-6.730397106172271e-05,-9.809986120892553,1.0000003828810913,0.9999993837764558,-6.478062127065017e-07
0.17600000000000013,0.001325738446017094,-0.002583514427599496,-0.0009325363023579677,2.3227113896658763e-05,4.7883779279218936e-05,-9.809808731776263,0.9999999265427499,1.000000216559956,-1.3009242021887825e-06
0.17700000000000013,-0.003097522251558844,-0.0011988907592191983,-0.001703555922726162,-2.677663899966022e-06,0.0001152748149159226,-9.810044885708535,1.0000004640260909,0.9999996182766319,-1.0458140586652234e-07
0.17800000000000013,-0.001509271021669799,-0.0013305498951390806,-0.003574222456778578,0.00017249693667472767,-0.00014233290237174423,-9.809853163326974,0.9999998777559466,1.000000333658005,8.373050954354037e-07
0.17900000000000013,-0.001425085974897707,-0.0015717557229881407,-0.0011844725689639517,0.00011504870265820078,-0.00012824583551812184,-9.809934540328294,0.9999999230758397,0.9999996396003697,1.4582393376202183e-07
0.18000000000000013,-0.0027639268275840663,-0.0006401289275605427,-0.0038314308652433586,-6.975816859933879e-06,-2.51062423979445e-05,-9.810080179885617,0.9999995330762199,1.0000004904515438,-7.828107084906934e-07
0.18100000000000013,-0.001604542593807984,-0.0006220621583736766,-0.0023676876242105906,5.298098139608745e-05,4.238474370613443e-05,-9.81004252395078,0.9999997581432472,0.9999996688464469,-6.69501026008096e-07
0.18200000000000013,-0.003488823587763295,-0.002439179027336868,-0.004454638043076909,-0.00010643017977684401,0.0001515175001347947,-9.81018035717178,0.9999995463197345,1.000000297320637,1.972155487947927e-07
0.18300000000000013,-0.0008079911783157511,-0.0029329816669296004,-0.0024620888896819053,9.252273363572371e-05,3.6152404680215494e-05,-9.809691573597112,1.0000009315920289,0.9999999724394139,-8.152353127202299e-07
0.18400000000000014,-0.0020206315260352294,-0.002125889052197387,-0.0016119375946831013,4.07117894978213e-05,9.845834022027955e-06,-9.810168052670708,0.9999991222780976,1.0000005877168145,1.1448416380685983e-06
0.18500000000000014,-0.0036287484531676408,3.596760604052899e-05,-0.001063657087181814,-0.00011408405872326245,-0.00017134803854352995,-9.810031939578328,0.9999991620208762,1.0000010285349141,6.141235847590814e-07
0.18600000000000014,0.00040608584930856405,-0.0040043849882412845,-0.00159355521406094,-1.946642360294024e-05,1.643544122380624e-05,-9.81006587141937,1.000000270281979,0.9999997062272145,7.018711081867228e-08
0.18700000000000014,-0.0022310398169835023,-0.0020758167078658778,-0.0005197098310427946,-0.00016457226979812493,2.5394933704927947e-05,-9.810045113665243,1.0000003901098085,0.9999997819490871,-4.174776554733655e-07
0.18800000000000014,-0.0011061840041941327,-0.0004689306910273961,-0.0005646657810356853,1.534805922812473e-05,-0.00011835432181279848,-9.810198522796625,1.0000008395183289,0.9999996778756484,1.3459515615697093e-07
0.18900000000000014,-0.0025859142722686815,3.233266403583038e-05,-0.0016855823327091358,-6.2922591823175e-05,3.1730227019745788e-06,-9.810000219959015,0.9999997195353496,0.9999996560630233,4.8765340079122594e-08
0.19000000000000014,-0.0014535089117600232,-0.0005502503554136286,-0.0030227702410566253,-4.21111767579159e-05,0.00015943635757188705,-9.810082233648211,1.000000293695196,0.9999999562031202,1.1155511970268513e-07
0.19100000000000014,-0.00266932231175567,-0.0008832551225489568,-0.0007026558497568575,-5.5335803878189185e-05,-2.3253171288414244e-05,-9.810079505004245,0.9999993888350985,1.0000009532058691,-1.0946617474437694e-07
0.19200000000000014,-0.00221444832275844,0.00035669729142689954,-0.0014547039449156584,8.85752056940275e-05,6.340381713685017e-05,-9.809784499116681,0.9999999434967743,1.0000001271343317,-4.7193972213333794e-07
0.19300000000000014,-0.0025618810884425833,-0.0014694105186253345,-0.00013077777372095677,7.46824680864028e-05,-5.5520421615934294e-05,-9.810035341941436,1.0000008493592223,1.0000005206009746,-2.972804963560509e-07
0.19400000000000014,-0.0017684978901129221,-0.0014191237417720407,-0.0033175258109804876,-9.622257564197318e-05,-0.00012262825846476525,-9.810113418398842,0.9999995987028757,0.9999989672756369,-2.717550729805175e-07
0.19500000000000015,-0.00024284242995184046,-0.0009263169433320468,-0.0017385668658347615,-0.00010285173617581543,-0.00018213404156474926,-9.8099385900094,0.9999996557061281,1.0000007029811477,-3.6858521435145774e-07
0.19600000000000015,-0.0004973918372655039,-0.0023310968781601843,-0.00199452635214949,0.0001359534260715104,-1.1068054682300737e-05,-9.80987190557998,1.0000006546472218,0.9999996158811731,-3.071610256053141e-07
0.19700000000000015,-0.0026070044116756584,-0.001371151491107067,-0.0015959213621410402,-4.199425459871729e-05,7.65432333372887e-05,-9.810014564623446,1.0000002886139772,1.0000001838031747,-4.391649831015959e-07
0.19800000000000015,-0.0026447085414368684,-0.001096158209500393,-0.001225887330050069,5.241838302739402e-06,-0.00010416655848502432,-9.809893518759829,0.999999339924442,0.9999995004822125,9.462371444410642e-08
0.19900000000000015,-0.001971455643413348,-0.0017022076383935805,-0.0008308938186770377,2.528162529570468e-05,-2.2018837522654912e-05,-9.809958358708565,1.0000004168842838,1.0000004277740087,6.77789044105796e-08
0.20000000000000015,-0.0013662946589365669,-0.003455507151220315,-0.00320643397853697,-7.905155181614062e-05,1.213844278266692e-05,-9.809887220723986,1.000001046844073,1.000000334884924,7.275258375326745e-07
0.20100000000000015,-0.0018298503257188911,-0.00145266624080507,-0.0019214612346231939,8.764184911552312e-05,4.3461088176747014e-05,-9.809979989585916,0.9999997261566373,1.0000001841073725,4.800494467754617e-07
0.20200000000000015,-0.0008087330685067854,-0.002373863809807727,-0.003218209308620941,9.347411550905952e-05,4.479669708550281e-05,-9.80999061607864,0.9999995009703995,1.0000003535010842,-8.659884023516844e-07
0.20300000000000015,-0.0032087704463360086,-0.002475158252532464,-0.0012949339741376588,5.802482917657394e-05,-1.1500800389438292e-05,-9.810186817315316,1.0000003906912116,0.9999988999991088,3.761321723123827e-07
0.20400000000000015,-0.0012253621763222264,-0.0026964816557974755,-6.273233975724775e-05,-6.0763282727311595e-06,9.188073028317221e-05,-9.809940954720977,1.0000000686779378,0.9999994288986712,-1.7949029166425123e-07
0.20500000000000015,-0.0019137803884184939,-0.0018851089684713337,-0.0006289343039157136,-1.4261439074706074e-05,7.93741068892001e-05,-9.8101449486108,1.0000003299987066,0.9999989122500126,2.284586482674378e-07
0.20600000000000016,-0.002665195223366543,-0.0014402468435772786,-0.003887839354205481,9.694474351645207e-05,-9.978046218596779e-05,-9.809723255931122,0.9999995387223105,0.9999997633827027,-2.6328167264004085e-07
0.20700000000000016,-0.001945267329954317,-0.0020057121212279706,-0.0009342748034753857,7.489656263345023e-05,-0.00013395817304554376,-9.809989404391674,0.9999999795689074,1.0000001245118648,-6.474789429231381e-08
0.20800000000000016,-0.0022485622083829706,-0.0020294592490623735,-0.0014014910850226536,-1.646456198048113e-05,5.4560412523009865e-05,-9.810185342319208,1.0000000681107806,0.9999999142803183,-7.450902649361375e-07
0.20900000000000016,-0.0019810397972396822,-0.003107700301527038,-0.0003880656077828637,0.0001382205280361419,-5.245888196435187e-05,-9.809997983479121,0.9999999444836496,1.0000000168670338,-4.253344674621048e-07
0.21000000000000016,-0.0034815389762404506,-0.002405614748575615,-0.00210603202841391,3.600538267233972e-06,9.439186795945516e-05,-9.809945532078698,1.0000005277359896,0.9999995502178275,7.779604956738267e-08
0.21100000000000016,-0.0020224328393527906,-0.0023873208775615816,-0.0016028666919740728,-3.128481134542973e-05,-0.00010959045045360165,-9.809873738042889,0.9999999967547918,1.0000001186861027,-2.6289992408372555e-07
0.21200000000000016,-0.002610319842626367,-0.001704025788972279,-0.0014885746006150892,0.00020232874216106258,-9.150767422069549e-05,-9.80983679755245,0.9999992195581793,0.9999998799470684,-1.708333699135309e-07
0.21300000000000016,-0.0014078263946196647,-0.0024553608303595075,-0.002517015345887463,2.4712094447294966e-05,5.578089647980849e-05,-9.810072847949451,1.000000022975734,1.00000003276005,-4.3462843958688575e-07
0.21400000000000016,-0.001196022045961297,-0.0019742706304379217,-0.001003020124863162,0.00010663829689770959,-3.047542528210588e-05,-9.810020302642132,1.0000003816713492,1.0000000025466786,1.7475758221235087e-07
0.21500000000000016,-0.0015093077560871112,-0.0034564542481504332,-0.0006923884561403808,0.00011846907302659366,0.00010748700135062741,-9.810072496722634,0.999999701622468,1.0000005166514767,1.2254646410384762e-06
0.21600000000000016,-0.00257960557449156,-0.0026366719845496993,-0.0032228328371839933,-0.0001391103575990839,-0.0001834214435254745,-9.809987849248232,1.0000000405698792,1.0000002637690755,-6.703286930398535e-07
0.21700000000000016,-0.0010060501747271777,-0.0022628124454428774,-0.002999487549278386,1.9111822245136335e-05,-0.00011534175604499891,-9.810067313413114,0.99999968551412,1.000000035314789,5.033043354183705e-07
0.21800000000000017,-0.0034138765905101466,-0.0024703493783929872,-0.0011233406509991034,-1.35943514659929e-05,-4.8547006604842725e-05,-9.810098161551938,1.0000004441293804,0.9999996798847072,8.988111913236828e-07
0.21900000000000017,-0.003009828856664376,-0.001799702617761731,-0.0006891958080476746,9.007335528081756e-05,1.1307816234668517e-06,-9.80999758339408,0.9999996588609592,0.9999994019601134,5.329678145780924e-07
0.22000000000000017,-0.0013229204555150502,-0.0018360002145979403,-0.0013752993034087764,4.805119734229403e-05,-9.706813580967679e-05,-9.810210828606268,1.0000000231696498,0.9999995666006104,4.898799750596136e-07
0.22100000000000017,-0.0034376486922603924,-0.0019308233790720835,-0.002758969190903208,6.491967438677737e-05,-3.454418517309464e-05,-9.810019669694945,1.000000813422848,0.9999995152928433,-8.210575700220027e-07
0.22200000000000017,-0.0026326720697314645,-0.0016150607591566535,-0.0013403714318374422,0.00017300282723171285,-2.703886462056862e-05,-9.810194819952697,0.9999995472778797,0.999999837725306,-1.5514694730510796e-07
0.22300000000000017,-0.0027587181658493744,-0.0012398728201419504,-0.0022809664803683854,0.0001481885932977444,5.918436633591937e-05,-9.810063044783991,1.0000003839976277,0.9999993088376504,-2.618603637194971e-07
0.22400000000000017,-0.0018662843685639723,-0.004335282055702794,-0.001891691589881405,-0.00010281288509278622,-0.00013201982050228128,-9.809996906536218,0.9999994976299257,0.9999994493405736,3.669092517568365e-08
0.22500000000000017,-0.0017006291174050143,-0.001991354727387293,-0.0012623466438205376,0.00012004524072947225,8.825456989080151e-05,-9.809850798567746,1.000000046890466,0.9999999590606973,7.04489044024531e-08
0.22600000000000017,-0.004442117666953739,-0.004309356927941686,-0.0025242265012865206,7.489828774231126e-05,0.00014751273059356395,-9.810068353038043,0.9999991065748145,1.0000003902384462,1.9720006983744417e-07
0.22700000000000017,-0.001805873633766908,-0.003403857790347472,-0.0003635107504658579,-0.0001180127645976419,8.691760640715251e-06,-9.80998946417722,1.0000002080269423,1.0000008974856631,6.29458494119643e-09
0.22800000000000017,-0.001092805429040083,-0.0030035330378938036,-0.0010419503543214275,-8.961310074749815e-05,-2.3875403231443943e-05,-9.81004353594558,1.0000000274060794,0.9999996185884414,-1.4005208480714492e-07
0.22900000000000018,-0.0037240575026068687,-0.0012709104620118419,-0.0017167106321752616,4.937034678230158e-05,0.00012038835618172466,-9.810052485570091,0.9999997122212751,1.0000005419451075,5.442976184497605e-09
0.23000000000000018,-0.001664508710246764,-0.0013154975838507734,-0.0005587857288183071,-2.3283903468410634e-06,0.00014537147887301843,-9.810109982890813,1.0000005544908261,1.0000010014657248,4.874188754347611e-08
0.23100000000000018,-0.0015542876682076478,-0.00117786269989208,-0.0022080270472568052,-2.5736762100752763e-05,0.00010276250581739233,-9.809981846278257,1.0000003986223094,1.0000002951755953,-1.6638366148666366e-07
0.23200000000000018,-0.003695245136334533,-0.0019129250009320463,-0.0021399005514293615,-1.9804637440367345e-05,1.3499333847503142e-05,-9.809922994110318,1.0000002876820107,0.9999998957842975,-7.356457345311902e-07
0.23300000000000018,-0.0030100796413669376,-0.001579103732967823,-0.0022909359442652563,4.091995117692437e-05,-4.418802159721514e-05,-9.810023418200016,1.0000001991635488,0.9999994481655994,-1.7846994150547698e-07
0.23400000000000018,-0.004111534736128157,-0.0022891234076559052,0.0007086897565949666,-9.197528557008217e-05,-0.00019235366261532538,-9.810198327436831,0.9999997001865405,1.0000003118973368,-2.596385869639732e-07
0.23500000000000018,-0.002786290874944292,-0.002074669053263904,-0.0031209043554952256,4.901469766603571e-05,-1.3391758922934414e-05,-9.810024073550016,1.0000000465748755,0.9999999958818906,6.655830009053088e-07
0.23600000000000018,-0.00223021877587932,-0.003335623640226748,-0.003745045919127341,-0.00010875340691350347,7.472498369083019e-05,-9.810081789204471,0.9999999912426817,0.9999994012917562,-6.670759960312645e-07
0.23700000000000018,-0.0014011935741777863,-0.001796181998354374,-0.0006302739114254379,-0.00011548562693658392,0.00023433351815598324,-9.810067003951174,0.9999998239848186,0.9999998624346566,-5.096843415091784e-07
0.23800000000000018,-0.002625616992504232,-0.003570125235341489,-0.002297784044106391,5.832771581263536e-05,0.0002033336525177782,-9.810022595765146,0.9999995762771585,0.9999997708718361,-5.428754658260325e-09
0.23900000000000018,-0.004618304977857077,-0.002031422316953433,-0.00036195526902818706,-7.756593828683143e-05,4.747825401425387e-05,-9.809875046873088,0.9999991280244724,1.000000378613768,-9.064436691970049e-07
0.24000000000000019,-0.0013916367174129948,-0.0006211791244762567,-0.0022596789934775,-9.495486214023886e-05,3.0856351940229696e-05,-9.80987464445267,0.9999999769246474,1.0000000787877807,3.308322264640068e-07
0.2410000000000002,-0.0026106772836694985,-0.0007147352276454799,-0.004560572792466088,5.212480101950172e-05,-0.00011234639027885712,-9.809997630515651,0.9999999765872941,0.9999992133940632,9.520743375310284e-07
0.2420000000000002,0.0004115016087457772,-0.0005412354327648638,-0.0037775681063005125,-9.267652560862905e-05,0.00011623034710045237,-9.80977125923993,1.0000001946862969,0.9999995793882995,-1.9182094409524712e-07
0.2430000000000002,-0.003005211307807342,-0.0028095998360571487,-0.004175507761379712,-8.239374402155195e-05,0.00016300411800064995,-9.810007460036852,0.9999992872681379,0.9999998058606924,1.2112478842211838e-06
0.2440000000000002,-0.002190120363262267,-0.0014175318433312849,-0.0028825518966113027,-1.1627454767848746e-06,0.00012552389453470133,-9.810143166705446,1.0000007997995024,0.9999998038071451,-9.035772012967885e-08
0.2450000000000002,-0.00309299763289076,-0.0019036571520220174,-0.0025266686145415085,-0.00014218514669198627,1.9262914946520213e-05,-9.810052506510411,0.9999999907597978,0.9999996387821857,-5.191156641968403e-07
0.2460000000000002,-0.0027530874471470923,-0.003591112583089611,-0.002426060669099051,-4.559722110407244e-06,-0.00013456308947771878,-9.809971431075875,1.000000448880307,0.9999996096756661,7.036978792827512e-07
0.2470000000000002,-0.002210550214750735,-0.0019220610386957455,-0.003563239801604989,0.00018847955505457633,9.784534454362082e-05,-9.809889875213202,0.9999998310776167,0.9999998649340366,7.138907723950159e-09
0.2480000000000002,-0.0028622597191853886,-0.003380720127468469,-0.0015870517265284528,-0.0001367422727323004,-1.009581612828148e-05,-9.809933878122578,0.9999996605068727,1.0000001940714407,-2.0858086242111117e-07
0.2490000000000002,-0.004299490566082377,-0.002339889924207469,-0.002425248114248547,5.288284331433606e-05,8.050310551928912e-05,-9.810084897928915,1.00000030528672,0.9999996332695226,-2.1939162076146235e-07
0.25000000000000017,-0.002428509103485522,-0.002256682936050027,-0.002176874125542972,9.634601848868499e-05,-2.0971963167243668e-05,-9.809816723955143,0.9999997920156182,1.0000000367314896,-8.049092500426209e-08
0.25100000000000017,-0.002069044810806546,-0.0019143545764735434,-0.0027045268199397373,-0.00015033163819096995,0.00013809934114980248,-9.809946092725745,0.9999999483667024,1.0000005159658387,-3.02585555957376e-07
0.25200000000000017,-0.004352347608400721,-0.0034508809435550136,-0.0031705943874213156,0.00020438278926655583,-1.9942555941197818e-05,-9.809930062756463,1.0000000778185794,1.000000302668534,-1.2368463628046433e-08
0.25300000000000017,-0.002141748455455167,-0.0018600646864161015,-0.0025946144629630206,-0.00010399937804409763,-0.00010759970795359948,-9.810087688343604,0.9999999537810048,1.0000004760142691,-3.553461568303648e-07
0.25400000000000017,-0.0032363881537029893,-0.0029072913803704753,-0.0029262737084442816,3.509142458045253e-05,3.8897712179020525e-06,-9.809897557903675,1.000000457658443,0.9999997128145239,-2.3910871621030793e-07
0.25500000000000017,-0.0017246601974174143,-0.0017268080210907626,-0.004087746332133074,0.00010709513268748932,-4.384340117034861e-05,-9.810051554625373,0.9999996855795784,0.9999996505974249,1.3928634152467816e-07
0.25600000000000017,-0.0023117711503140817,-0.002068592942103217,-0.003750341071795609,-3.096792917236204e-05,0.00014635449625836889,-9.80994055910069,1.000000885566312,0.9999993601158681,-6.484427039667553e-07
0.2570000000000002,-0.0035531147505555253,-0.0016902666724336768,-0.0017908878702767401,0.00016592840368702028,0.0001124354607842276,-9.809967986720512,0.9999999339165535,1.0000000488038863,1.7503337259606403e-08
0.2580000000000002,-0.002711440578206466,-0.0035235426477385804,-0.0025788847380249667,2.548722148659608e-05,-6.674225859065287e-05,-9.809942032143294,0.9999996887789164,0.9999994405122501,2.6353863038041695e-07
0.2590000000000002,-0.0028556456035577693,-0.003574240313924908,-0.0025276622978250116,4.171147720852625e-05,1.3564342018416243e-05,-9.809937686747812,1.0000003180342585,0.999999748179352,7.344601331218713e-07
0.2600000000000002,-0.0027186884383627757,-0.003922111485598833,-0.001694907766909011,4.72954178519775e-05,0.00020745260679895725,-9.80995920986786,1.0000003474287462,0.999999176250119,-1.505025276175898e-09
0.2610000000000002,-0.0036505663605864267,-0.0009335489411948772,-0.0024913009308277874,7.523706313762681e-05,0.0001259428250167752,-9.809894706123497,1.0000002442285405,1.0000001271213768,1.3263530562971827e-07
0.2620000000000002,-0.005273231496858415,-0.002365496666677972,-0.0020816698244362814,-9.436637228660814e-05,-6.296712628154743e-05,-9.810077893041887,1.000000675332089,1.0000006201633864,7.14706436668002e-08
0.2630000000000002,-0.003991800281426174,-0.003917031374731563,-0.000819338041766357,1.1069168659048011e-05,2.4715890742197205e-05,-9.809823019050905,1.0000000963677307,1.0000003483393534,-1.4353312741263654e-06
0.2640000000000002,-0.0015233117997817483,-0.0006215722049099084,-0.0027303100601068614,-9.693207649638354e-05,2.1545798064589505e-05,-9.810091114209548,0.9999993894158993,0.9999998714796839,-8.986480035154955e-09
0.2650000000000002,-0.0017547576705021091,-0.0013437281812581751,-0.002062188962883947,4.923697648195991e-05,1.9767824874379602e-05,-9.809862386272256,0.9999999739129007,1.0000002740951228,6.202998838907866e-07
0.2660000000000002,-0.002997351322885608,-0.002307491557635505,-0.002580705538017796,-9.984294259060211e-06,0.00011902854056434605,-9.80979886152933,0.9999995338540526,0.9999998103721397,-3.774788853656149e-07
0.2670000000000002,-0.0024189348288936926,-0.0033439856207794117,-0.0039272230984703635,0.0001065056002452029,-0.0002130252273679344,-9.809855094518225,1.000000778728394,0.9999996986856322,2.9150944644145176e-07
0.2680000000000002,-0.0015874989474189386,-0.002896599987815612,-0.0029071883692245626,-0.00014892861726870747,0.00012198737656069805,-9.809971279970483,1.0000004294718456,0.999999893757959,-5.858863567084744e-07
0.2690000000000002,-0.0018681321480652727,-0.002663886518585976,-0.002700600874550797,-1.5532414265111628e-05,-4.370244958472705e-05,-9.809951029931755,0.9999996613429346,1.000000575113541,8.484645698903364e-08
0.2700000000000002,-0.004903480271843348,-0.0026816958127237286,-0.0028143209735934367,1.1996216666325325e-05,1.901687758698685e-05,-9.80989146569235,0.9999999938199459,1.0000009751644592,5.53182191968283e-07
0.2710000000000002,-0.003351911297656591,-0.0025568714235440397,-0.0035045800078753217,-0.00017578188539709626,-8.230245385480165e-05,-9.810070950392078,1.000000397986065,0.9999988965851254,-8.562465009087375e-07
0.2720000000000002,-0.0015584926344530156,-0.0001602354000142794,-0.003924053842027405,9.91604395484366e-05,-8.069027910880711e-05,-9.809979459906561,0.9999993230905542,1.0000001192038015,3.927751270712165e-07
0.2730000000000002,-0.001353591752102633,-0.0020953320632962165,-0.002702733027658503,-0.00012527105087738327,7.24930408594596e-06,-9.810089250466802,0.9999999783157674,1.0000000302714274,-5.871128284005058e-07
0.2740000000000002,-0.0018717501889817987,-0.004860217589482697,-0.0036383100432641415,-9.649800419488185e-05,-0.0001081282628549691,-9.80995077374023,1.0000002450909795,1.0000007794506334,-8.089028659832466e-07
0.2750000000000002,-0.003571806707921444,-0.0026872428643142433,-0.0029907450755142883,0.000103825380914677,-1.5601946897415757e-05,-9.810035807432339,1.0000000374490114,1.0000004179210527,4.690302992303064e-07
0.2760000000000002,-0.0042247679561613315,-0.0026297962931732984,-0.0027311900399211247,-2.3392118795797956e-05,4.6165443275410114e-05,-9.81004050329721,1.000000236980009,1.0000001435695605,-2.2828110352864907e-07
0.2770000000000002,-0.0013196637471150489,-0.0026334454135667914,-0.0023255615831537365,-1.208114986368151e-05,0.00020842644875314955,-9.80995699953149,1.0000003639612816,0.9999998970960217,-3.62768571915689e-07
0.2780000000000002,-0.0011352459176031614,-0.003737153030259807,-0.0035183001330802684,-0.00010415652199843913,-0.00013518834923813598,-9.810104277708973,1.0000001950839814,1.0000001121596889,2.55938356610661e-07
0.2790000000000002,-0.002107049345196641,-0.0032555312379744625,-0.00219537176570322,8.918806882394276e-05,0.00023243807074457636,-9.810027368418439,1.000000226686999,1.0000003275773,-1.5164408562195548e-07
0.2800000000000002,-0.0034011271782650714,-0.0020857649335233076,-0.0034931719580427044,-0.00018003024444862768,-1.8022270778974056e-05,-9.810009429712377,1.0000004627116905,0.9999999497662593,4.33856150197637e-07
0.2810000000000002,-0.0026459666590190082,-0.0018420048312493328,-0.00032655934130682365,-7.245543327728541e-05,8.613525834340635e-05,-9.809987612531923,0.9999998774742113,1.0000005719920957,6.622157440106929e-07
0.2820000000000002,-0.00372590321908969,-0.0019441849870897871,-0.0030660699960041843,5.777395407050357e-05,-2.484326953147185e-05,-9.810098813324206,0.9999991655296007,0.9999997708219375,-3.40681498671515e-07
0.2830000000000002,-0.0033674711738489555,-0.0026946554410922354,-0.0034018041598805927,0.00012125032808260434,9.829705650777818e-05,-9.809972815987305,1.000000898183734,1.000000046102174,7.810153219562521e-08
0.2840000000000002,-0.002305508070470225,-0.0018933651214328353,-0.0023697768441316098,-0.0001123591666421347,5.39533302193953e-05,-9.809821061489059,0.9999999426391536,1.000000194765,-1.277112829750318e-07
0.2850000000000002,-0.00026136950500793175,-0.0024495170327000597,-0.002130761676511746,-3.769273731869066e-05,5.366268292379311e-05,-9.810088783790768,0.9999992788974498,1.0000008256859698,-9.477411816127054e-07
0.2860000000000002,-0.0035736405374036952,-0.0021764007443114373,-0.0024760274329358087,0.00011007543104148233,-0.0002021604875696555,-9.810096775018819,0.9999995040147939,0.9999993143299055,1.1609377880466707e-06
0.2870000000000002,-0.0019283097095958868,-0.004050097367751986,-0.002378538633330971,-0.0001271585776123367,1.5915816019290452e-05,-9.80999311171769,0.9999999151693948,1.000000111236611,3.330385912546755e-07
0.2880000000000002,-0.003517517818680551,-0.0012274067288298484,-0.002857819067474355,-2.0754747313475813e-05,8.54483474033759e-05,-9.809870532764327,0.9999996428887631,1.0000001256950377,5.605571585552406e-07
0.2890000000000002,-0.004098053516642958,-0.0040834772089084915,-0.0012185623269397425,-0.0001937457059056823,-0.00013182872550645256,-9.809929052141262,0.9999992542405728,1.0000001618860177,7.937727837261367e-07
0.2900000000000002,-0.0028966296780091345,-0.0053367184482093315,-0.0034398395066386664,-0.00017905476805938768,0.00023486081341128127,-9.81011913839073,0.999999947999809,1.0000005426524625,1.0131395202368991e-06
0.2910000000000002,-0.0041009323899247364,-0.0032757202544378165,-0.0034312569172462986,5.0945451430858516e-05,-9.777935303224414e-05,-9.809962285949265,0.9999997714112973,0.9999999236782396,9.150957019541696e-07
0.2920000000000002,-0.004855467572957321,-0.0020339146438794076,-0.0033946039366230573,-3.744833333481906e-05,-5.035430698324149e-05,-9.810073938921871,0.9999999592520719,1.000000311499107,-4.201339633808e-07
0.2930000000000002,-0.002465834828880754,-0.0025786883990294765,-0.002550664317452459,-2.565198616007002e-05,-6.238629736791059e-05,-9.809948940847208,0.9999992463175164,0.9999993871389058,4.121425755422878e-07
0.2940000000000002,-0.002301064818594938,-0.004294644123156468,-0.003818461729110834,-5.07717792225494e-05,0.00010656022481149228,-9.810227039047609,0.9999999820844966,1.0000000843594794,-8.2323993778264e-07
0.2950000000000002,-0.003380055639131672,-0.003485842500862273,-0.0031301527618010764,5.1037806133764044e-05,1.6225971215842888e-05,-9.810080032888806,1.0000003884758573,0.9999997437948973,9.607804461803663e-07
0.2960000000000002,-0.003323198670679456,-0.002520971060208458,-0.003793132979996409,-3.6804150283373706e-05,3.073829690811308e-05,-9.810034662323298,1.000000076806372,0.9999998269045697,4.1812921213559145e-07
0.2970000000000002,-0.0030378130517170034,-0.0021287463519640386,-0.004925272246382478,3.230280076639563e-05,-8.661071018546259e-05,-9.810044727911082,1.0000003548506722,1.0000004578923294,-2.1286360011024457e-07
0.2980000000000002,-0.0035515967284616527,-0.00319642022360538,-0.0018107602275025908,2.656384339689828e-05,6.187794419148613e-07,-9.81003173712421,0.9999994562689027,1.0000001466874444,7.843962567495241e-07
0.2990000000000002,-0.0020858775265408212,-0.0014257984555521575,-0.0033844502820607088,-0.00012002968520541582,7.336093443854259e-05,-9.810079708263416,1.0000001284940225,1.0000000461081933,7.688614630508009e-07
0.3000000000000002,-0.0012242141057537293,-0.0029288186212815125,-0.0015684666295447815,-0.00016306822906955357,-7.075731946543247e-05,-9.810163987394173,0.9999992374468221,1.0000004642705156,-5.104580447185912e-07
0.3010000000000002,-0.003043677934388756,-0.0011765252796214257,-0.004403760248759263,0.0001331426434528811,-0.0001027175988788913,-9.809842540056147,1.0000007748243616,1.000000059467954,-2.389469299463861e-07
0.3020000000000002,-0.0013869323211057017,-0.0026262468819173257,-0.0037528196540113305,0.00010483546215745293,-4.440509855009232e-05,-9.809994852364932,0.9999996049979804,0.9999999478277591,-6.906611742467918e-07
0.3030000000000002,-0.0032528354460602056,-0.0026427868681948383,-0.003481538849741443,-0.00010262727567301327,3.818730997890311e-05,-9.809959722423125,1.000000326464303,0.9999993974318027,-4.2997824417042867e-07
0.3040000000000002,-0.002683154301132437,-0.003652995071414313,-0.0037347295506122155,-4.743899777862339e-05,-3.2251971841609195e-05,-9.809830488644163,0.9999999247579956,0.9999996786919378,8.39078450374705e-07
0.3050000000000002,-0.004155278796359831,-0.0030450255992217697,-0.003030177239369356,0.0001906281959528364,7.41161944431441e-05,-9.80992601639716,1.0000003629061083,0.9999997852694603,-7.303126508489276e-07
0.3060000000000002,-0.004414476377030362,-0.002038574858106085,-0.002380540429509069,-7.274982170818694e-05,-1.642148960666065e-06,-9.809926541358248,0.9999998488954611,1.0000001610219937,-4.5677034063911087e-07
0.3070000000000002,-0.002492899626495011,-0.002242599823266303,-0.004490939906684293,3.0167989401301123e-05,0.0001605971327169267,-9.809908066881231,0.9999991067882124,0.9999998298557595,-1.2419920237754326e-07
0.3080000000000002,-0.003983409870468263,-0.001978383555385068,-0.004000703330536893,0.0001328913021013747,-6.112245963417377e-05,-9.81004694589134,0.9999998498360557,0.9999995947454926,-3.5052058618355617e-07
0.3090000000000002,-0.003935587823769916,-0.0034882603388236167,-0.0054525056946810105,-1.4929295778292623e-05,-2.4533628711416215e-05,-9.809822548869313,0.9999994428742888,0.9999996977924779,1.0115127827613166e-07
0.3100000000000002,-0.0036054786577298004,-0.0037832979036810117,-0.0017567734437671707,-6.846107153089233e-06,5.020094503260734e-05,-9.810040608539,0.999999669226969,1.0000004926042911,-6.550371511417519e-07
0.3110000000000002,-0.003715219734415126,-0.0034833962352054976,-0.0022017058350833605,1.2889859521109932e-05,-4.486406698875794e-05,-9.809813181336699,0.999999740206917,1.0000002979800018,2.7793712302033805e-08
0.3120000000000002,-0.00349637465718263,-0.0017181882699026003,-0.0051659921846426305,-8.665718751210512e-05,2.1947839000173354e-05,-9.80986222868434,1.0000003814825338,0.9999996857772171,-2.1291161918381728e-07
0.3130000000000002,-0.002278697804294314,-0.00391150513109116,-0.00147883733724824,-5.389716468802103e-05,-9.548469283254054e-06,-9.809968239226867,0.9999997961226115,0.9999988774657529,-4.6827725617276974e-07
0.3140000000000002,-0.0031560766367538322,-0.0033502812690587966,-0.0024937742543749315,-2.4544315786127273e-05,-0.0001434682123583032,-9.8100593565075,0.9999989440812764,0.9999987138608505,1.944935539947961e-09
0.3150000000000002,-0.0020125286824313107,-0.003763447887545656,-0.0029720583855378604,0.00010800514277046394,7.760833238947812e-05,-9.80983191683455,1.0000004447143627,1.0000002270668855,5.46373022493207e-10
0.3160000000000002,-0.003785364792247326,-0.002330834211339583,-0.0015077798365706221,0.00017734701986047178,2.4433965947876815e-05,-9.810047883991485,1.0000002753056212,1.0000008408314793,5.942228686950287e-07
0.3170000000000002,-0.0025132705893279334,-0.003267278420486149,-0.0023000073319578516,-0.00021161118374506517,-0.0002772341059563463,-9.810145924603606,1.0000001393303104,0.9999999707415751,-3.2229679635139473e-07
0.3180000000000002,-0.0017693066802378565,-0.00328201288542084,-0.0034489793640383676,4.3871775434973415e-05,0.00010673148416115446,-9.80993174450376,1.0000007905423898,1.0000007455197009,-5.586086382680303e-07
0.31900000000000023,-0.0019646030663879677,-0.00237572287119855,-0.004030576040923901,-2.8168329169426754e-05,-3.5939295816375325e-05,-9.809975490167341,1.0000008007609247,1.000000215138991,1.6866526928016761e-07
0.32000000000000023,-0.0035477378362326626,-0.005175448095916031,-0.0019265557988163379,2.3769014962283422e-05,-1.6173127782772938e-05,-9.809909090497655,0.9999999711553079,0.9999994997394347,-8.580239837524558e-07
0.32100000000000023,-0.0034974301543144303,-0.003237044601367171,-0.004617415868221878,-0.00024275968302540007,-4.700231864839782e-05,-9.809923828060944,1.0000003071842571,1.0000007009554783,-3.1448383473179886e-07
0.32200000000000023,-0.0022840707333247577,-0.004099309754834371,-0.0018250928101983363,-3.593134171849448e-05,-4.669624772442882e-06,-9.810141228079745,0.9999999964063431,0.9999999485764463,-1.7257958506781063e-07
0.32300000000000023,-0.0034090159617258813,-0.0040374417863183396,-0.0037456289649143134,1.8577859484588425e-05,-5.347917422619927e-05,-9.810071781413672,1.000000606399251,1.0000008675575534,-8.07490794333196e-07
0.32400000000000023,-0.002427490141809621,-0.0027316894030542764,-0.0035782365861968617,-5.1538430509161794e-05,-8.782490767380415e-05,-9.810013156261377,1.0000010573627083,1.0000004921190038,8.231334547909937e-07
0.32500000000000023,-0.004951019731656427,-0.0027940419194716214,-0.003766696279488065,0.00012678139192957814,-6.182056494421645e-05,-9.810054722039053,1.000001059401186,1.0000000156463764,-5.224582779788209e-07
0.32600000000000023,-0.00514880548567844,-0.0031251300361657287,-0.003943079201959281,-6.204133288479263e-05,2.4200847072201758e-05,-9.809975134420629,0.9999999968404825,0.9999994245490774,-1.3408444167637546e-07
0.32700000000000023,-0.003187582877266662,-0.0031543441956128886,-0.0033798102278016617,-2.6773123694213813e-05,0.0001124957685308393,-9.810062557953092,0.999999449402301,1.0000006203716827,-5.217235281238752e-07
0.32800000000000024,-0.0026965013103103113,-0.0039122478077130455,-0.0043297184312443,9.617214659671395e-05,1.2364649765010499e-05,-9.810088071220672,0.9999995198319871,0.9999998372509137,5.665174503366572e-07
0.32900000000000024,-0.0020627156785434264,-0.000944771969953712,-0.004379422335360694,0.0001131649899397514,-5.1244504587020813e-05,-9.81014043476172,1.0000010575209806,0.9999998030479275,5.598235761875888e-08
0.33000000000000024,-0.003817573576915023,-0.002547467179876538,-0.003052964667215403,-6.289072667587204e-05,-4.5157040209316116e-05,-9.809962593308667,1.000000078295181,0.9999992292621962,3.411524911705464e-07
0.33100000000000024,-0.0024408057030186766,-0.002573911455577043,-0.004560453490551793,0.00015388691070600857,0.0002300012076363595,-9.810042890051694,0.9999993503670324,1.0000001944065493,8.956340862287974e-07
0.33200000000000024,-0.004024045554139145,-0.0017906225561496031,-0.0023345829194797076,3.8497953013408485e-05,5.040001451457381e-07,-9.810055838580976,0.9999990037587569,0.9999999578567775,-2.662641603309833e-07
0.33300000000000024,-0.0029436687635027922,-0.004243504023327816,-0.004227959212854249,-8.680499492292862e-05,1.2942266506852562e-05,-9.810053714808047,0.9999996749761771,1.0000001216823964,-5.529225488041446e-07
0.33400000000000024,-0.004327563149516249,-0.0036646616119509414,-0.003584608175100603,1.104717765885208e-05,-2.3701692182948832e-07,-9.80999351274566,0.999999971630966,1.000000137256559,-2.652004848228408e-07
0.33500000000000024,-0.005428589093748373,-0.0034731622683255815,-0.001964107026781042,8.185608107427476e-05,-6.610567874937947e-05,-9.80997728625152,1.000000413589671,0.999999319978316,-7.333612178908711e-07
0.33600000000000024,-0.0025462358944182252,-0.0017195466969817791,-0.002911308838541806,7.076618608381687e-05,-8.538765422059019e-05,-9.809991646009072,0.9999993368669288,0.999999738698671,-6.197831969461391e-07
0.33700000000000024,-0.0036444472103724515,-0.0027005492537498918,-0.003450823146598483,0.00016929641176592573,8.562700388551853e-05,-9.809980416322306,1.0000009708237434,1.0000000972165664,-3.9705456130969796e-07
0.33800000000000024,-0.0030045092299930127,-0.004527923489051739,-0.0026318083892365052,4.966819892407084e-05,4.364744560461609e-05,-9.810118314404418,1.0000003952895633,1.0000007814863765,7.550698706203626e-07
0.33900000000000025,-0.003978205064421181,-0.0032771586556364063,-0.002260274678580698,7.175639079941381e-06,5.855777060670449e-05,-9.809923394048267,1.0000000045163413,1.0000000205960722,-8.018483058553131e-07
0.34000000000000025,-0.003903212079011005,-0.002305136143642272,-0.004064186608097604,7.611900744574226e-05,-3.6260894372764056e-05,-9.809996838362405,1.000000125900907,1.0000011829451358,4.200795269464383e-07
0.34100000000000025,-0.004095756163729038,-0.002833493204997566,-0.003176343406183623,-2.26752753435353e-05,7.730324017231552e-05,-9.81001404925788,0.999999855976848,1.0000004546499501,3.00715102014391e-07
0.34200000000000025,-0.003269303882926995,-0.002574590964422207,-0.003226993205248021,-9.570796670258049e-05,-1.6062521737001627e-05,-9.809815789724732,1.0000003301691032,0.9999997630619307,-2.738648892321516e-07
0.34300000000000025,-0.0037252060392278744,-0.0028984317300076567,-0.0023076258113183578,1.3310358186270955e-05,-7.214191686347544e-05,-9.810025450650897,1.0000000324505687,1.0000002982510405,-3.140166096496096e-07
0.34400000000000025,-0.004205403254796255,-0.002777728270502299,-0.0035539069586115564,-0.0001785800552779439,0.00020819147126776208,-9.810025390852603,1.0000010593979347,0.9999996311629222,1.0308326147689002e-06
0.34500000000000025,-0.004031899941644894,-0.002786281470179966,-0.003071280602941406,-5.356490509160977e-06,-0.0001040911123736996,-9.809892461090572,0.9999994190332091,0.9999998668413818,3.732107276743845e-07
0.34600000000000025,-0.0033822499493825543,-0.0027085396816857754,-0.004000129456299134,0.00016011812815411243,9.143624320746726e-06,-9.810025153298843,1.0000002371593173,0.9999995426397359,4.170778053664917e-08
0.34700000000000025,-0.003798744974896151,-0.003353913107250218,-0.004302976978918582,0.00013459930779821037,-0.00010305274298148635,-9.810122778530765,0.9999997630900036,1.000000005781538,3.036280326796319e-07
0.34800000000000025,-0.0031330104696916487,-0.0036677247065942473,-0.000540108281937287,1.9744248715151165e-05,8.923990946790404e-05,-9.810240874529127,1.0000001830945355,1.0000004473346393,3.138266027065987e-08
0.34900000000000025,-0.00303783027673044,-0.00453034681144335,-0.002779665772513823,-8.234031142176559e-05,-0.00023427130612620266,-9.81001523948176,0.9999994189982662,0.9999992018515954,1.7217932969382718e-07
0.35000000000000026,-0.003968057145608877,-0.003961759570105441,-0.0034764016782306197,-0.00011347128993304003,-8.110828152552105e-05,-9.810035658326374,0.9999992938479585,1.0000008399954996,1.934808258669469e-07
0.35100000000000026,-0.0039254441756162405,-0.004263148455169048,-0.00404247762468142,-3.820004979993688e-05,-0.00012140514015255469,-9.809971891048898,1.0000005093827382,1.00000006885224,-1.1815976630829831e-08
0.35200000000000026,-0.002028462277991825,-0.0027103181163708454,-0.002941366852417988,5.644472244570424e-07,-3.785553835683031e-05,-9.810040984623598,1.0000010162054624,1.0000007613868298,1.1012168153383819e-06
0.35300000000000026,-0.003154550581819089,-0.0025148121616551415,-0.004841152693625956,1.0674494933008068e-05,0.00014823758237352306,-9.809938500784781,0.9999992746189204,1.0000005570418047,3.456409032286367e-07
0.35400000000000026,-0.005092134858305843,-0.003190743738827773,-0.004473362042263932,-1.4213886548746993e-05,6.373565736781906e-05,-9.810138488891349,0.999999113449355,0.999999537532017,4.502009218479232e-07
0.35500000000000026,-0.00422857821788879,-0.0033626750371973844,-0.0036004675693541857,9.388560530628127e-05,7.714159835443643e-05,-9.810037426848416,1.0000007747024577,1.0000006283457676,-1.5532928381114723e-07
0.35600000000000026,-0.0034822986466762655,-0.005553408464433978,-0.00418726861430417,1.855770554705681e-05,0.00020770645184153467,-9.810045970234441,0.9999996598676106,1.0000000766012005,3.8573900175576286e-07
0.35700000000000026,-0.003029042957097468,-0.0034475219728591472,-0.004191184994269893,2.8528887645533314e-05,-0.00022944749765145095,-9.809980971632323,1.0000004882120472,0.9999994714153169,1.7150639292092468e-07
0.35800000000000026,-0.00567327873845723,-0.003481821101498935,-0.0034204964092613053,4.304756950919473e-05,-5.7139835313301496e-05,-9.809854779833064,1.0000003689080663,0.9999996117205089,-5.1636125572422e-09
0.35900000000000026,-0.00376069279217365,-0.004411420481013443,-0.003384226869622401,-1.7946641546357228e-05,-4.682636075507115e-05,-9.809816055147577,1.000000328951037,1.0000001146768074,1.0999634676843275e-07
0.36000000000000026,-0.0038854318089893984,-0.004922860435689052,-0.0027213427973772357,4.360032501681953e-06,-0.0002755029153071257,-9.809974926052595,1.0000003940269135,1.0000010246682753,3.837935635891148e-08
0.36100000000000027,-0.0032013852887243367,-0.004735707736137968,-0.004135386013758607,5.77997358757007e-05,-0.0001015852610944176,-9.809945108300768,0.9999999610043386,1.0000003158723152,-5.694877365252013e-07
0.36200000000000027,-0.0019807478854133535,-0.004253534612675212,-0.003371327385572178,1.4620616476078177e-05,6.245014737865869e-05,-9.810109586158257,0.9999998197589707,0.9999996876416081,-4.3824766337524856e-07
0.36300000000000027,-0.0033587797781703737,-0.0037940516338038008,-0.0032104549829419004,9.660555849286232e-06,0.00017997815048684292,-9.810245606699258,0.9999993845337375,0.999999982509771,4.790850844244702e-07
0.36400000000000027,-0.003230246180958959,-0.005498655290454051,-0.003961073560511462,2.950251790712166e-05,7.907187243371377e-06,-9.80992507236818,1.0000002288079848,1.0000000342341062,-5.917151187461022e-07
0.36500000000000027,-0.0036541444888507526,-0.002742178225003432,-0.003357564068929891,9.512012503911174e-05,6.711746439510375e-06,-9.809963898014782,1.0000009574598163,0.9999995762253497,3.2183811966474763e-07
0.36600000000000027,-0.0034409563049803736,-0.005037811545744943,-0.0047691316405678585,4.558908931557674e-05,0.00012548237030932216,-9.810142208219713,0.9999996554809755,0.9999992963010171,-1.0300270529781431e-07
0.36700000000000027,-0.004639568762762618,-0.0018195189952884896,-0.003602468979781058,4.105921111364395e-06,-6.699755787197889e-05,-9.809995781307675,0.9999999464902288,0.9999993072414407,-4.8619786745408435e-08
0.36800000000000027,-0.004754974044438581,-0.004089157684689577,-0.004204347959331583,3.414706673946806e-05,6.116576055026054e-07,-9.809872792629935,0.9999996540052488,0.9999996399200098,-5.713401212387893e-07
0.36900000000000027,-0.004959314906770717,-0.0040496902896786065,-0.005237747141855165,-1.5825934464776838e-05,3.298660754153414e-05,-9.810003701775583,1.0000005426200156,0.9999994022960391,1.9184013428103665e-07
0.3700000000000003,-0.003569995365392741,-0.005282013220366642,-0.0020225775602308975,-8.508640197014463e-05,0.00021145951799356763,-9.809833264381654,0.9999997407798109,0.9999998857829719,-5.258252240212517e-07
0.3710000000000003,-0.0045708973130819145,-0.0031165956327399063,-0.002234042120036018,0.0001203365768269025,0.0001954529666737734,-9.810091162131862,1.000000415330047,0.9999993930895209,-4.3950720284175367e-07
0.3720000000000003,-0.004090793960999527,-0.004646942203243863,-0.0007566008135774568,0.00014726079586658558,-7.463128942003808e-05,-9.809806166869613,1.0000005320677021,1.0000002250569502,-7.852201227787933e-07
0.3730000000000003,-0.003063549871920333,-0.005433186242002138,-0.0021014408247461906,1.0117208350506485e-05,8.607352455778e-05,-9.8100318136234,0.9999998575756828,1.000000326955475,2.1997838373850166e-07
0.3740000000000003,-0.0037486006745048673,-0.002860738266308664,-0.002766951614253128,5.229190426963513e-05,1.770754460722958e-05,-9.810021649145801,1.0000001598415538,1.0000010511098174,6.493460258487751e-08
0.3750000000000003,-0.004139064061019729,-0.003115923153450539,-0.0028690297956205668,0.00011169266566491905,-1.3260249867845612e-05,-9.809997825211518,0.9999989410149721,1.0000000715850546,-3.239864430806397e-08
0.3760000000000003,-0.002463660782961727,-0.004521651371787877,-0.00236038738478357,-0.00011842820951033267,-0.0001625524430564106,-9.810038716316829,1.000000628934933,0.9999997851797694,-6.21567218253422e-07
0.3770000000000003,-0.005908800403042426,-0.0025669853554318766,-0.003662118620774088,0.00013491823751630308,-1.6598502266501948e-05,-9.810044178606319,0.999999718295461,0.9999999215669656,5.241043425806087e-08
0.3780000000000003,-0.004057134784883263,-0.0026607842479430877,-0.003681923745774372,-4.701047351590128e-05,1.5269610103447467e-05,-9.810102794003283,1.0000007216788167,1.0000000326111043,9.818432510694733e-09
0.3790000000000003,-0.005099067835835624,-0.0037727705731480073,-0.00511816314744041,2.9446955829741394e-05,1.7488806907586015e-05,-9.810057285932965,0.9999998667704773,0.9999990421351673,-4.757723383889353e-08
0.3800000000000003,-0.003142323829471329,-0.0042339350206436295,-0.0027704646652872587,3.12869413213924e-05,8.378318036040162e-05,-9.809858660600295,0.9999997120740152,0.999999660463125,3.284468533653434e-07
0.3810000000000003,-0.004073120759391076,-0.0030919144066171196,-0.003228527445356024,1.299366575555256e-06,1.2172129427213816e-05,-9.810003255366029,0.9999996094273101,1.0000003209279074,8.687774468010532e-08
0.3820000000000003,-0.0030420859559828865,-0.005495391327208037,-0.0037624441226864237,1.1587443639982687e-05,-0.00017031668925813215,-9.810022530402772,0.999999951573122,1.000000363334594,-4.2630169687645115e-07
0.3830000000000003,-0.00329815756953397,-0.005583951044732389,-0.004211189761216737,-9.752603510507227e-05,0.00024137446538624504,-9.809943365145443,1.0000006815334517,1.0000005990816785,3.404913904089917e-07
0.3840000000000003,-0.0030412322920147787,-0.003909954377809786,-0.005927354705539003,0.00015853583561187663,0.00016522236883594396,-9.810037488246623,0.9999998529501644,0.999999589826735,2.5332968916129375e-07
0.3850000000000003,-0.0035841232080292126,-0.003965256584281563,-0.003105976460322978,-0.00010376460054578375,0.00013178814741775946,-9.80982053022715,0.9999999090709938,0.9999998769497812,-1.065281087438181e-07
0.3860000000000003,-0.004869076032075608,-0.005349877972200472,-0.004406557943635469,-0.0001987651556587727,-9.009439377917429e-05,-9.809957449923035,0.9999997717697459,0.9999999766938468,9.285420795184292e-07
0.3870000000000003,-0.005229892762121644,-0.004561638787910865,-0.00328226268851609,0.00018733572052392387,-4.917908299155145e-05,-9.809917419867064,1.0000007367490136,0.9999997834684088,3.531265504152714e-07
0.3880000000000003,-0.005221028619308634,-0.0022721764343315506,-0.0026626162417845815,-6.177757180989123e-05,-0.00013462259145869093,-9.809987269799528,1.0000002470989606,0.9999997846535923,1.6031119959607238e-07
0.3890000000000003,-0.004774798240366751,-0.0035360868141394042,-0.0046067472380291056,2.788577092206744e-05,8.505366728722462e-05,-9.810020681552118,0.9999998185694592,1.0000005502457647,-1.9003504090855306e-07
0.3900000000000003,-0.002960924130189549,-0.003909193824060561,-0.003595276851486735,-0.00018722681901866617,6.228524786095916e-05,-9.809985206108475,1.0000001172134838,0.9999990736996904,-1.3157195349435238e-07
0.3910000000000003,-0.0057129134526670575,-0.0025690296371410227,-0.004218904299604734,-2.2758642158315405e-05,-3.0842045383716005e-05,-9.809922047556105,0.9999996688036414,0.9999992213658011,8.819893046136638e-07
0.3920000000000003,-0.006025731322752765,-0.004507095212244577,-0.003996120050939943,-8.33141338253008e-05,3.9905916502626705e-05,-9.810053966270832,1.0000010256638934,1.0000001220305947,-9.234699963223799e-08
0.3930000000000003,-0.003447452931710962,-0.004236074084738992,-0.0041317328267053855,-5.4332544039065094e-05,-3.822626097644091e-05,-9.810204704082933,0.9999998461056012,0.9999997592529787,1.1172167821355065e-07
0.3940000000000003,-0.004758405426515126,-0.0028234761805732427,-0.004000155576331357,-8.284525717890889e-05,0.00016247162646181485,-9.80997294946576,1.0000001315812377,0.9999999735323929,-1.5032290156198045e-07
0.3950000000000003,-0.0025931256286865576,-0.0037349143668310545,-0.005588579333102548,-4.0358483665157596e-05,-0.0001054450238011518,-9.809954404459535,1.0000006670504786,1.0000012788560713,-5.553644260446107e-07
0.3960000000000003,-0.004522872530104404,-0.0032519997349164794,-0.0033611650766357873,1.997544145891902e-06,0.00010901979227894492,-9.810055900568305,0.9999997095665173,0.9999998156991605,2.17745249863714e-07
0.3970000000000003,-0.0009827961758147848,-0.0051139413731002194,-0.0044929170984432665,0.00024362435975941712,2.4418691966729364e-05,-9.80996827645962,0.9999991929969022,1.00000008650355,8.406234272641088e-07
0.3980000000000003,-0.004944158437550229,-0.005987276117757968,-0.004307164577827768,7.26774607043381e-05,8.725461782485402e-05,-9.81004583058102,0.9999996731765286,1.0000000615495537,3.8207838051354013e-07
0.3990000000000003,-0.004191322330911426,-0.0029429161898371567,-0.0034317883141102012,0.00013374022278040738,-0.0001523702278236227,-9.81008392819881,1.0000002768058847,0.9999997581352522,-1.89418099622618e-07
0.4000000000000003,-0.0035555107809045285,-0.003514909086163213,-0.003122792476749579,-0.00011931927906850657,-6.096514158300952e-05,-9.80999221074524,0.999999252661032,0.9999992041392949,-3.673478693217343e-08
0.4010000000000003,-0.00559958783050184,-0.005123697658888336,-0.003494244252049236,3.610755569675617e-05,-0.00012053196785276937,-9.809942663843131,0.9999995311199135,1.0000001705414514,-1.0880690836129412e-06
0.4020000000000003,-0.003984165610056369,-0.003689384033038863,-0.00415809728977276,-9.027641915053965e-05,8.328131907984542e-05,-9.810024983475357,0.9999990290037865,0.9999994387718538,7.993990721433792e-07
0.4030000000000003,-0.0032882714032086233,-0.0019060987402545332,-0.002888625847346939,3.0544278515781155e-05,0.0001255265033625229,-9.809976138197642,1.0000000657612444,0.999999415815298,3.688890467306193e-07
0.4040000000000003,-0.0035682338446384083,-0.0037828347866327256,-0.0037328516677118174,-3.335734022115185e-05,-0.00017312358517186232,-9.81011404938107,1.000000336265215,1.0000002117674442,4.901471685756417e-07
0.4050000000000003,-0.004789059745566506,-0.004125690488724521,-0.0038624043651428234,-5.695187201381571e-05,-0.00014087750825341662,-9.810055909658187,0.9999995504483039,1.000000491243226,2.3682261113344236e-07
0.4060000000000003,-0.00376487002856617,-0.004316227813717551,-0.00424789514164675,5.484901693546569e-06,-4.298533910341542e-05,-9.809961207332192,1.0000003066659329,1.0000004236679227,1.3644964392964212e-07
0.4070000000000003,-0.0029625226509644616,-0.0025465596230908856,-0.0034104957358301966,9.867818512962435e-05,-0.00014103795283290635,-9.810093190220915,1.0000005052629528,0.9999998058936931,-4.814727893535978e-07
0.4080000000000003,-0.0031029397533713335,-0.004309293408941643,-0.0035953880620591305,0.00015183235006644628,-0.0001253932849585215,-9.810112964371312,0.9999997766778629,1.000000432288117,3.3922602147708217e-07
0.4090000000000003,-0.003630142076994084,-0.0032134196516555146,-0.002467692697563896,-9.784544113589543e-05,-5.041032850020606e-05,-9.81009111953255,0.999999433148586,1.0000001494313773,-6.337523997809024e-08
0.4100000000000003,-0.0034107641409630365,-0.002204152578997613,-0.00538829486268815,0.0001251605306755244,0.00015656634761828492,-9.81014897677148,0.9999997531769423,1.0000004231116606,7.17051193890812e-07
0.4110000000000003,-0.0038631304381149508,-0.003274120060313473,-0.004760007345291739,-0.00022105855183280685,0.0001846460711290619,-9.80999775888206,1.0000001201525317,1.0000001553420805,-1.0879859243011608e-06
0.4120000000000003,-0.005085539499788263,-0.005015295805391534,-0.004878976339206777,-2.4516167567744264e-05,-0.00012007248663516246,-9.810160872466723,0.9999997977863107,0.9999997547921411,2.941319672202742e-09
0.4130000000000003,-0.005032263249398304,-0.00422854849104679,-0.00448246396954465,4.1478638050692215e-05,9.02654105194361e-05,-9.810035232249662,1.0000001134607581,1.0000006221381106,-2.261983093980865e-07
0.4140000000000003,-0.0036686636026593933,-0.005870185712224379,-0.00444052990480745,-2.4715825072715332e-05,0.00018938465089674057,-9.809986358231676,0.9999994061766863,1.0000003964447841,-1.650590753184219e-07
0.4150000000000003,-0.004824365225042751,-0.002731430384019076,-0.005148300325348718,-8.075057296510113e-05,2.396880005909193e-05,-9.81003952230889,0.9999993175160968,0.9999997491681716,1.3154397945981012e-07
0.4160000000000003,-0.006446542117393146,-0.003741866201541899,-0.0038596112371213774,-0.0001251016743280735,1.1334125201472283e-05,-9.810038395369412,0.9999998237967813,0.9999996651229346,3.945684139177383e-08
0.4170000000000003,-0.003811854198523654,-0.0035211424860571335,-0.004048046714701137,0.0002349923916703015,-5.935694790991646e-05,-9.810038377653827,0.9999999160192617,0.9999996684967807,-7.225997809633267e-07
0.4180000000000003,-0.004682933416467643,-0.0022373317982132355,-0.005621880370719054,5.978125652677461e-07,4.927645053648461e-05,-9.809792937804447,1.000000339590684,0.9999995182697394,3.8908966774409156e-07
0.4190000000000003,-0.0035150973686810284,-0.0038975247321907233,-0.00494151457178214,-0.0001123207128638827,-3.966266478304451e-05,-9.809879067773533,0.999999963241933,1.0000001722282588,2.72901527407736e-07
0.4200000000000003,-0.005815029242136765,-0.0034014060298676943,-0.004740557898201307,9.354531122515104e-05,-0.00011119599253682165,-9.80998773298134,1.0000004399629363,0.9999998070948452,-2.4995517395005403e-07
0.4210000000000003,-0.00420364420617388,-0.004564835304912034,-0.0039032983915239104,3.275283796304559e-05,-0.00011099906209189572,-9.80997505784237,0.9999987753118912,0.9999996816389091,-2.4198707498923353e-08
0.4220000000000003,-0.0030642305803609453,-0.004034488134895609,-0.0060799472650308545,-4.3740368618124914e-05,-1.5341620701918436e-06,-9.809804065375593,1.0000005799039209,1.0000006502312428,-3.4974845766433533e-07
0.4230000000000003,-0.003808051656729835,-0.00640070732685594,-0.0038518442652076693,-1.8402640571914534e-05,-2.0448122799397866e-05,-9.810000913147862,1.0000004560710105,0.9999999417446228,-5.211504315755989e-07
0.4240000000000003,-0.005020795996939105,-0.0035442688550222077,-0.0041941074404767765,8.952862949449389e-05,3.6533594251712045e-05,-9.81011352773712,0.9999994397467333,0.9999998287493548,7.538033522691198e-07
0.4250000000000003,-0.006299256327031657,-0.004358958726826146,-0.003942384240487958,0.00021820685040427053,1.2171755925566943e-05,-9.809916680222036,1.0000004107415814,1.0000004428500244,-1.205048575393875e-07
0.4260000000000003,-0.004846070640886157,-0.005388004148815763,-0.005488905002680757,-7.102199653769668e-06,0.00010764978940184596,-9.809981759084769,0.9999993992567953,1.000000129304794,-2.2391144470498673e-08
0.4270000000000003,-0.004496671098152346,-0.005175380362304218,-0.004323400212359145,0.00018556862305432815,5.681661007715623e-05,-9.809761608705967,1.0000001307038189,0.9999985228627138,2.0455883088928432e-07
0.4280000000000003,-0.004006275110006726,-0.005886650298408309,-0.005674629235482889,7.185072215635103e-05,-3.0495205132170936e-05,-9.809825391117664,1.000000051417127,1.0000005658735716,-6.807429293002345e-07
0.4290000000000003,-0.00552159571858994,-0.002441341549214826,-0.0037963864917541015,-0.0001502057353986252,0.00035525283639322987,-9.809942888173142,0.9999996178843117,0.9999999329798603,-2.9390372167926627e-07
0.4300000000000003,-0.005484364409342733,-0.004031365805124277,-0.0037132342311772468,-6.535413700504591e-06,-7.864097382906874e-05,-9.810091922728525,1.000000308297192,1.000000038936658,1.6185596402086848e-07
0.4310000000000003,-0.003693640332008502,-0.004649934589253632,-0.004748304489196881,-1.2228468459047951e-05,-3.8963652408511125e-05,-9.810035805908507,1.0000003434217066,0.9999993502790251,-9.488321680998828e-07
0.43200000000000033,-0.004952280997352152,-0.002639867689009384,-0.004314988229399014,-6.991409442931454e-05,-2.4380754889828236e-05,-9.80995668170283,1.000000126560616,0.9999994935987675,8.74313364130002e-07
0.43300000000000033,-0.006403062724114432,-0.0028239235059858685,-0.0027988602251802328,-6.284094045040962e-05,0.00010520446113428355,-9.809949476726118,0.999999700529662,1.0000004246161047,4.6869424984057713e-07
0.43400000000000033,-0.003896081198664785,-0.0037316959407580194,-0.004458049662357733,0.00014166551933946812,6.426119920694139e-05,-9.810038424455996,1.0000004235167141,0.9999999638274143,2.604625674981248e-08
0.43500000000000033,-0.004652355993185714,-0.0050088538089933035,-0.004416516302443716,8.598429507428148e-05,-2.600398256956904e-05,-9.809978314143343,0.9999994183715688,1.0000001309132638,-2.15889899894464e-07
0.43600000000000033,-0.004261620472227524,-0.00541441493726514,-0.004775182177974905,2.739610749264272e-05,-2.1982554497837885e-05,-9.810061058616862,0.9999994711248961,1.0000002744897345,8.735246353817358e-07
0.43700000000000033,-0.0039513985756097925,-0.004643354008019664,-0.003925816153003592,5.535810063446004e-05,-5.800814411673352e-05,-9.80990620930787,1.000000056896674,0.999999857142385,-7.380901776360389e-08
0.43800000000000033,-0.0035674874903921148,-0.0049209041333409505,-0.003443116562393895,-0.00012762747125531852,2.089705624833352e-05,-9.809859500817705,0.9999997171378662,1.0000003996923703,-1.0813809765242475e-06
0.43900000000000033,-0.003706356640954341,-0.0036024275376873227,-0.0031920051687334243,0.00010465115330931186,3.176151702768598e-05,-9.80995829980989,0.9999998686059185,0.9999998682998605,-3.113073462384261e-07
0.44000000000000034,-0.0044811957897699485,-0.007567186072315219,-0.004937725403541765,-1.1971420338918128e-05,0.0001390135338454574,-9.809885689288917,1.000000258772444,0.9999992128564783,-7.058980370143117e-08
0.44100000000000034,-0.004340709220402382,-0.0040460538509198936,-0.00574038839881614,-1.7509756840825266e-06,0.00012699471414768208,-9.810062260446855,0.9999998090787585,1.0000002908020875,-1.2215293884534972e-07
0.44200000000000034,-0.006117371475284252,-0.004573002143868425,-0.0032652579345119562,-4.802352369406943e-05,-1.4714942600806541e-05,-9.810185119630443,0.9999996055207679,0.9999995839665906,3.0960642781162865e-07
0.44300000000000034,-0.0039504507991350996,-0.0030761649120830932,-0.002600203811545254,-0.00015098036704158305,-8.094349074016312e-05,-9.809894642126,1.0000006086618365,1.0000001204076263,7.419956192144186e-07
0.44400000000000034,-0.0046900821831365284,-0.004114564828093353,-0.005155869294640637,-9.017377469697247e-06,9.555861655087674e-05,-9.809918628852875,1.000000543152401,0.9999995596204878,-1.3472556381862668e-07
0.44500000000000034,-0.005226644348221541,-0.003799167450019584,-0.005034168717477664,1.6595282058584015e-05,5.097055727495339e-05,-9.810108941950142,1.0000001009059016,0.9999996788814883,9.94499643673866e-09
0.44600000000000034,-0.003171275686624134,-0.004818567319351195,-0.004382355766436147,-0.00016791398419912801,8.590335602625014e-05,-9.81002149067998,1.0000001655998805,0.9999996607843041,5.961963359440076e-08
0.44700000000000034,-0.004703623778004271,-0.005960468450852893,-0.005757058241726617,6.467255406612281e-05,9.345236318775628e-05,-9.810004475645846,0.9999997155320723,0.9999990360367965,-9.215248673783819e-07
0.44800000000000034,-0.00437647190532617,-0.005247839254949045,-0.003509840890108316,4.185865969433398e-05,-0.0001616053072413827,-9.810135500671562,0.9999999903936515,1.0000001665593565,6.76906159695947e-07
0.44900000000000034,-0.005570947951485407,-0.005142664023881513,-0.00440762367946941,-1.6877325338654587e-05,-8.389345032512264e-05,-9.809896424682456,0.9999998583356688,1.0000004403088365,-5.96368340600934e-08
0.45000000000000034,-0.004373573891339055,-0.004621073187104471,-0.0030420868341462784,-0.0001329663803124743,0.0001397215638882513,-9.81014596681876,1.0000001240183531,1.0000001368273421,-6.482171298060142e-07
0.45100000000000035,-0.005662900256425481,-0.004825135829431232,-0.00426661421775171,-0.00017176906277544297,-8.36361892359871e-05,-9.80997919572533,0.9999990094834336,0.9999996294835517,-3.2360983542632593e-07
0.45200000000000035,-0.004677073080411385,-0.0034647891020016326,-0.005851685959732388,-5.841850623188692e-05,-5.767333917776363e-05,-9.810191678049335,1.0000002973323205,1.0000003720965929,-1.6969907117783492e-07
0.45300000000000035,-0.0030421060463102466,-0.004165328461513018,-0.004978261842207014,0.00012083090731056683,-1.6333397351076048e-05,-9.81010500659459,0.9999997163233922,0.9999998732907097,7.454348615882079e-07
0.45400000000000035,-0.003717375339003173,-0.006183227910620564,-0.006622028846036758,-2.5293504206044432e-05,3.128172863175853e-05,-9.81006384811046,0.9999999411904825,1.0000008468992179,-3.8648569450737815e-07
0.45500000000000035,-0.003686211024116911,-0.003218864291447787,-0.004576250825626529,-0.00016624427825961762,-7.046960145654966e-05,-9.810047317537753,0.9999994990213719,1.0000010266082238,-4.4258401538358664e-07
0.45600000000000035,-0.004522813236155749,-0.006417754760033418,-0.004229778079861827,3.342684744152506e-05,-9.180789372284418e-05,-9.809886496032934,1.0000005473244413,0.9999992371718905,-3.333960170415084e-08
0.45700000000000035,-0.005079503522624957,-0.004444023560282281,-0.0036715188645196025,0.00010153802450152435,-7.274670635683542e-05,-9.810182255355276,0.9999989285888001,1.0000000498220545,6.328042330703933e-07
0.45800000000000035,-0.005502649059066586,-0.0022560250693459813,-0.005571264046787475,-0.00015349925796005759,0.00014547599836600412,-9.809984253438502,0.9999999763293371,1.0000003920251435,6.226904129336589e-09
0.45900000000000035,-0.004135303350548011,-0.0051076895994578144,-0.002781279790922125,-0.0001809029317915107,0.00017097108185289202,-9.810045960234532,0.9999992944910238,1.0000006106544594,1.0287819425082902e-06
0.46000000000000035,-0.003749173228376864,-0.0037610510965861836,-0.004855059453178519,-0.00016168695356769087,4.346357026923251e-05,-9.810236290477738,0.9999997348161306,0.9999993851241161,1.731114398974891e-07
0.46100000000000035,-0.0048288669304431325,-0.006036547545942411,-0.004489493082582417,-0.00013129016877620877,8.77725948626654e-05,-9.81000450831923,0.9999994204559828,0.9999993303910183,3.44648574349221e-08
0.46200000000000035,-0.004811619554907507,-0.00608420992263272,-0.006382012996246489,-0.0001129528554406254,-1.627623357731628e-05,-9.809974016961126,0.9999995666046809,1.0000001915916674,-5.029958026634061e-07
0.46300000000000036,-0.006419537688209032,-0.00447104728828953,-0.003335341830222275,4.2116112086740315e-05,6.212255472093427e-05,-9.809851011707988,0.9999999689962582,1.000000045836387,8.521362060785924e-08
0.46400000000000036,-0.004264710720544613,-0.0056630059244909894,-0.004314194549034433,-6.574071739605633e-05,4.809262014328004e-05,-9.809811863386207,1.000000247482792,1.0000003699122342,4.0989535891373275e-07
0.46500000000000036,-0.006226603775523435,-0.0031665032476772205,-0.004775259352876627,-9.605965897173832e-05,-0.000154769568123115,-9.809907471417102,0.9999998073579053,1.0000000913399512,-1.4106296578678125e-07
0.46600000000000036,-0.0037356993609646352,-0.004709666269051128,-0.002898455502949966,-0.00011502018792207979,-4.9339459906505894e-05,-9.81011919145361,1.0000003560264537,0.9999998306492907,2.85542448729707e-07
0.46700000000000036,-0.004801628930239436,-0.005740873435090773,-0.0046098711082570906,7.193131905682795e-05,-3.4909400794974704e-05,-9.810070480495186,0.999999990284016,0.9999995076407783,6.1621267397784794e-09
0.46800000000000036,-0.004485148734980545,-0.004069649499150817,-0.004596740336007977,-8.47015636892119e-06,-1.5869516992878687e-05,-9.810101287669498,0.9999993378755059,0.9999998520004001,-3.3520900885561063e-07
0.46900000000000036,-0.003998306382290397,-0.004463152057727564,-0.0033608280629861854,-5.757459532145107e-05,1.6282306133221906e-05,-9.80991928356302,1.0000000052001443,0.9999998113518981,-5.145332117945559e-07
0.47000000000000036,-0.0055023838599608235,-0.003646053569107558,-0.004776081179185855,0.0001352813738307699,-7.551913853979561e-05,-9.810191287585496,1.000000005993426,0.9999998413834928,2.387359878941505e-07
0.47100000000000036,-0.005057021606996189,-0.0028856380203694763,-0.005987113215018217,-2.2289833218095834e-05,4.8315492563328045e-06,-9.80992352296613,1.0000005323233785,1.0000002378280592,8.144965582528307e-07
0.47200000000000036,-0.004569444338302735,-0.003404114561006793,-0.00407900146517529,-0.00018602888861474085,0.00017505645659962008,-9.810108618166442,1.0000012225399755,0.9999999658606522,-2.0062235216883223e-08
0.47300000000000036,-0.004594941255309521,-0.00497835908955061,-0.003884443506955281,-4.6305723634320615e-05,-0.0001043258097253311,-9.810109187153044,0.9999997284884288,0.9999995497560956,-2.3521070027254825e-07
0.47400000000000037,-0.005131173715208877,-0.005553833482800154,-0.007122514383075124,1.0616237503811172e-05,-9.662841836199988e-05,-9.809990710892183,0.9999999618269875,0.999999454123461,-2.6231116545189024e-07
0.47500000000000037,-0.0037800129170881764,-0.005293919091904828,-0.005058404719999467,-1.1416023774555287e-05,3.390909298476669e-05,-9.809930093618085,1.0000000661600261,0.9999999155354932,4.157748440834955e-07
0.47600000000000037,-0.0032060617339786483,-0.0045896017299170925,-0.00595041942294543,0.00018719670654510063,-8.615074587817775e-05,-9.80988652023837,1.0000000037470864,0.9999997985198882,-1.4156732977275085e-07
0.47700000000000037,-0.003923273132994812,-0.0057781427662817655,-0.005461669880785104,9.630975824694989e-06,-8.66149557032238e-06,-9.809961728399596,0.9999999403731564,1.000000218342087,-5.018435988462684e-07
0.47800000000000037,-0.004840195298183156,-0.004678991835504132,-0.004549465637189723,-8.931548384597504e-05,8.132377273590445e-05,-9.810094870440844,0.9999998175693996,0.9999998328060786,1.4247293150361982e-07
0.47900000000000037,-0.004225221044840983,-0.004335669226891881,-0.003146562051197774,-1.8495859152407188e-06,3.648696292114028e-05,-9.810146573271318,1.0000003188162407,1.0000000323810827,-2.4004712885435914e-07
0.48000000000000037,-0.005945397318219317,-0.0053931122281305165,-0.0034466719353430358,-3.6975738625402145e-05,0.00020392740660699955,-9.809996098622179,1.0000002384207713,1.0000005281344173,-1.0938576797462541e-07
0.48100000000000037,-0.004471989853830192,-0.004807020333956653,-0.005613600595429344,-1.7099091861564816e-05,0.00014059778462549967,-9.810122093705287,1.000000213199155,1.000000080472864,-3.0786516001243215e-07
0.4820000000000004,-0.004510579711159909,-0.0040883952658328105,-0.004989522825422818,0.00013992827002269658,1.9048450239813288e-05,-9.809977654372378,1.000000393519781,0.9999993319662375,4.536926179118804e-07
0.4830000000000004,-0.005403883147291663,-0.0050954854369259645,-0.004203654719552465,-6.841642479297768e-05,-4.6999712389636887e-05,-9.809971195331427,1.0000002411138749,0.999999661184218,7.499777237907784e-07
0.4840000000000004,-0.004173208655707605,-0.0055085666692446114,-0.005070449713386856,0.00011556841316055457,2.101579238977723e-05,-9.80989772193364,1.0000005592445687,1.0000001855202445,3.242862056636753e-07
0.4850000000000004,-0.00446236919066788,-0.004179342765304682,-0.004862944972935351,1.6579124204797358e-05,-0.00019481356675159678,-9.81001208246714,1.0000007063481502,1.0000002554409417,5.742900016198367e-08
0.4860000000000004,-0.005540859615464464,-0.005897720269483649,-0.006229008654208318,-5.55927735692158e-05,-4.1915318715561464e-05,-9.80974441099186,1.0000004274977137,1.0000003105786412,-9.717125559834985e-08
0.4870000000000004,-0.004880596480427173,-0.004178824062587225,-0.004818655797501238,0.00011801008686721164,5.275549690567635e-05,-9.810181400982703,0.9999986710263276,1.000000276149828,6.598811092630791e-07
0.4880000000000004,-0.0050164618052255675,-0.004122103483993123,-0.0036561541183068686,5.1022596349225105e-06,0.00015215988094903138,-9.809771380758939,1.0000003343195332,1.000000459320771,-3.90704762677431e-07
0.4890000000000004,-0.004168983895109171,-0.005261854640004745,-0.0037115795888902625,4.006106284878562e-06,-1.8337481525001453e-05,-9.810007585391954,1.000000461742719,1.0000001481554628,8.470876469981753e-07
0.4900000000000004,-0.004793364979813009,-0.00502123782396409,-0.005762055513714623,-4.702233991737926e-05,0.00026427682354036034,-9.810074337543814,1.0000001847259261,1.0000000985393158,2.24862162862347e-07
0.4910000000000004,-0.0029207198250502642,-0.0067287817349576985,-0.003698990564822194,0.00013355735342464908,-1.7424943519376836e-05,-9.810061521570438,1.0000003274695424,0.9999998329607952,-1.8238466472162538e-07
0.4920000000000004,-0.004452427219288297,-0.006081805129846063,-0.003201634594567717,1.6162346096558763e-05,-5.795237961777068e-05,-9.810087698808061,1.0000004751089488,0.9999998833556987,5.768888371063365e-07
0.4930000000000004,-0.006699155019084315,-0.004446533100714029,-0.003456057570971657,1.064433272227993e-05,-0.00020634296873511815,-9.810045807161217,0.9999993173366186,1.0000004543588459,-4.903044330365808e-07
0.4940000000000004,-0.006359360859855807,-0.0035245760544397797,-0.005868598426002068,3.4829767413811173e-07,-6.897085755446903e-05,-9.810072522815977,0.9999987684267841,1.000000203403755,-2.9104796703234447e-07
0.4950000000000004,-0.005841762912642656,-0.005112665342141581,-0.005774908987677008,5.9908641715731005e-05,1.1685791634715774e-06,-9.810082682942395,0.9999998767391839,1.0000002483184203,1.2348627040735262e-07
0.4960000000000004,-0.0047443725791338895,-0.006275272605542027,-0.004886998400494211,0.0001110669510965644,8.382778990028075e-05,-9.810084792844965,1.0000000420005652,1.0000002586362349,3.0004924111254663e-07
0.4970000000000004,-0.004706532137867056,-0.005695778325455939,-0.0035439607430693522,-4.295340796784607e-05,7.527344942349481e-05,-9.810061896301676,1.0000001422769715,0.9999998343520349,9.903312112922793e-08
0.4980000000000004,-0.005660027083827699,-0.00435784611433674,-0.0056528461704262595,-9.906683616825926e-05,0.00010214515902781252,-9.810004945331539,1.0000000304048366,1.0000007529168877,6.983750172663433e-07
0.4990000000000004,-0.006305439836342929,-0.005121649812345039,-0.004057933300374174,9.813538427420087e-05,0.00010141451133146067,-9.809993997620273,1.000000474847162,1.000000361601439,2.9355614660370737e-07
0.5000000000000003,-0.005124335528971806,-0.007537756560106959,-0.005969316136055972,8.840876117679584e-05,2.834792774055237e-06,-9.809871815929354,0.999999672703204,1.000000635694355,1.1933237710643646e-07
0.5010000000000003,-0.0047422127249521304,-0.006792553578515427,-0.005287417698921827,0.00012261783107147772,8.622240998055653e-05,-9.8101019237055,0.9999997609983141,0.9999993548958074,-4.953720943392839e-07
0.5020000000000003,-0.003107689347122787,-0.005939508027655712,-0.005934162279690371,-0.0002500455495597814,5.8155285687775995e-05,-9.809977586193211,1.000000040672782,1.0000004749071436,-6.777081021675096e-08
0.5030000000000003,-0.007240884502815436,-0.0050390931840044555,-0.004488813867476521,-0.00024843769343969044,2.1002996635095146e-06,-9.80982259433261,0.9999998436322978,0.9999999721613425,-3.6135838506848036e-07
0.5040000000000003,-0.003707170663002789,-0.0050530430980363725,-0.002954033461521749,-3.5252260646484275e-05,6.451026605293244e-05,-9.80984410660326,0.9999997055583998,1.0000004729955325,1.1441583866956261e-07
0.5050000000000003,-0.004170349126296304,-0.006858688429137472,-0.0022959438213213065,9.32248488591617e-05,-6.590697866370178e-05,-9.809883227009351,1.0000000372476539,0.9999996775643947,1.3699057275474963e-07
0.5060000000000003,-0.004167031541654878,-0.006821820388086302,-0.006227238551305473,-9.303787132718576e-05,0.000204194199611438,-9.809864627184343,0.9999994588595592,0.999999636041491,5.62281341747863e-07
0.5070000000000003,-0.0055203963506070056,-0.0049733110213525935,-0.004279797661342956,-5.8653843674007794e-05,-3.556245874675819e-05,-9.809923294151242,0.9999996113997612,0.9999999136088615,6.592273441220523e-07
0.5080000000000003,-0.006001907280869617,-0.003962212484204023,-0.005472594134108031,-0.0001441756732797415,-0.00012173826598206896,-9.810020453427322,0.9999995786641753,1.0000004650883976,6.712202168401503e-07
0.5090000000000003,-0.004811179374331012,-0.0052929850653320775,-0.004921393157411728,-9.696210338848125e-05,-0.00010690573382770248,-9.809972822411305,0.9999987544777478,0.9999995992808806,2.2830235139009822e-07
0.5100000000000003,-0.006248460827837089,-0.005778671576682371,-0.005565190553199718,-0.00015942589259272254,1.5116936238063342e-05,-9.809905116809642,0.9999997201019355,0.9999997357078915,7.4660969049029e-07
0.5110000000000003,-0.004632660540888117,-0.004004452134714324,-0.007131822703397402,0.00013091782102406244,7.231822103771827e-05,-9.80991912936878,0.9999998060925427,0.9999999668091294,-1.1728400235403771e-07
0.5120000000000003,-0.004223129890339041,-0.006803465967502096,-0.005465959647443159,-8.609678480479314e-05,-4.525127829522876e-05,-9.809825913288746,0.9999993088538099,0.9999999679601179,-1.8891853082142673e-07
0.5130000000000003,-0.004260306340280449,-0.005970771662631921,-0.006298550862022221,6.101227339756452e-05,4.4970872619070174e-05,-9.809901298693086,0.9999995576253857,1.0000010299165352,-6.260441511030234e-07
0.5140000000000003,-0.005097696535533512,-0.004410922802613926,-0.004232192483807582,-3.2782634373771204e-05,-0.00011910292446054212,-9.809891131759795,1.0000007919889755,0.9999998361008271,7.516534982885945e-08
0.5150000000000003,-0.004467462218178268,-0.0037892547077363744,-0.004933962716349108,-1.641331120793554e-05,-1.901315162720996e-05,-9.809897757630756,1.000000345826549,1.000000345218063,-2.2099793874440494e-07
0.5160000000000003,-0.004500950432115386,-0.003936945200711716,-0.00632275229477676,0.00014157680324276977,-0.00010849546038470732,-9.809998528798602,0.9999997745561066,0.9999998580601702,2.5993125646433867e-07
0.5170000000000003,-0.005694234730161991,-0.004232580212328684,-0.006158719147510058,0.00010775302198239974,6.16328664277445e-05,-9.809888290504599,1.000000240792793,1.0000002888577846,6.825421802947123e-07
0.5180000000000003,-0.004857517598479944,-0.006126702340828292,-0.004438158743072382,3.27841084738204e-05,3.143241890124286e-05,-9.810171350129684,0.9999997448938075,0.999999739833674,3.617197742420588e-07
0.5190000000000003,-0.004774388664534982,-0.004142766038420075,-0.004701418983404258,0.0001682601761076915,6.734217582153197e-05,-9.810012966881184,1.0000003000742181,0.9999999265965435,5.16027745056108e-07
0.5200000000000004,-0.005290105549215946,-0.004029044716067716,-0.004276584824134604,-4.277032410386594e-06,5.109382391300747e-05,-9.81018498469007,1.0000001089205408,1.0000007767375072,-5.080026280763215e-07
0.5210000000000004,-0.0034416020502551553,-0.004663971207392787,-0.0058352626353028085,0.00021993641083458361,0.00013661110692284587,-9.809943003768579,0.999999850226166,1.0000004371398523,1.229624343988355e-07
0.5220000000000004,-0.006571720287426051,-0.00359371926837741,-0.0047964434452920715,-4.326819131915707e-05,0.00015249787650779527,-9.809793252731406,0.9999996370254496,0.999999912423415,3.9067054886967924e-07
0.5230000000000004,-0.005654300479140702,-0.006029170787983765,-0.005994637568409304,-6.924516549853364e-05,9.41965156921805e-05,-9.810076587328451,0.9999994437592034,0.9999994058352913,-1.4598419826874862e-07
0.5240000000000004,-0.005978512756858808,-0.004999338192816685,-0.005396796285841135,5.244274320443578e-05,-5.320901946656405e-05,-9.80998559288503,0.9999991559998078,0.9999993770511101,-6.127507853864866e-07
0.5250000000000004,-0.006337254488110797,-0.005479863420575041,-0.0045718317589424524,-2.53860046027784e-05,4.268051225287644e-05,-9.809989852103417,0.9999996196152466,1.0000006966030406,-1.502847509541497e-08
0.5260000000000004,-0.005292986731452875,-0.004763487513112506,-0.004244093349872443,2.9160024414657205e-05,-1.9263495103894326e-05,-9.810079131599794,0.9999996738255966,1.0000000973062866,2.6620595404784774e-08
0.5270000000000004,-0.004536235781060247,-0.006458272599833697,-0.004585747912020798,5.739405313580485e-05,9.634794343008197e-05,-9.809910649382884,1.0000001777365393,1.0000002631389342,-3.6741354694513914e-07
0.5280000000000004,-0.00560133609227982,-0.006068855321947204,-0.0051630961104768384,-6.4413963803888e-05,-5.117063744454503e-05,-9.810025655715041,0.9999993228709426,1.0000001900870754,2.562452047103795e-07
0.5290000000000004,-0.0069806393214286635,-0.005398122926907884,-0.004708416943453079,0.00010324645143288441,-0.00028598665178048436,-9.810107000929705,0.9999997652960125,1.0000002921762607,-3.9342493535941884e-07
0.5300000000000004,-0.006541802091858357,-0.0059633293906154045,-0.004908945771469975,5.212219016218778e-05,-0.00011155844206659136,-9.809895907320199,0.9999987893640414,0.9999991142886036,-9.59969499611446e-07
0.5310000000000004,-0.004115125438438165,-0.005031727208930929,-0.004802787253635044,4.918878924629295e-05,1.773226544923332e-05,-9.810056269010875,0.9999999114275144,1.0000001980472144,3.6017787345744983e-07
0.5320000000000004,-0.005077699460906605,-0.004922667898485673,-0.0046485445780965196,-2.50860386763198e-05,8.207435327840642e-05,-9.810159789467086,1.0000009022121112,0.9999999782368386,1.1215424472348281e-07
0.5330000000000004,-0.006085548848427454,-0.0036368314206295053,-0.0047838035711353115,0.0001350243297633929,-6.056669644652524e-05,-9.81011417374635,1.0000004794159723,1.0000009793350793,-2.0975133797319248e-07
0.5340000000000004,-0.0034734603777377077,-0.004989098555403509,-0.004826549653217509,0.000218631999025793,1.2784721600816857e-05,-9.810070530152142,1.0000009110573753,0.9999997175327897,2.1286148100892872e-07
0.5350000000000004,-0.004676062678804149,-0.00499908027311537,-0.005049561235704621,-1.8124817711264712e-05,-1.7834968430762234e-05,-9.80998706801832,0.9999993689178847,0.9999999118722435,-6.83918973724089e-08
0.5360000000000004,-0.006581180189094099,-0.005042813771556858,-0.003670410379150525,-8.472449523847653e-05,-0.0002764436623758009,-9.810060397902319,1.000001085257803,0.9999992018280646,-1.6048609645481008e-07
0.5370000000000004,-0.004635685520365301,-0.00559960096428314,-0.004938838383922636,1.905035288665102e-05,-9.933877807483399e-05,-9.810003775670513,0.999999300738211,0.9999998564014633,3.6192413998169237e-07
0.5380000000000004,-0.004086713283316429,-0.004466480770052531,-0.006778576245103287,5.8143281374578085e-05,-0.00011349712152883937,-9.809976976521419,0.9999995635130976,1.0000001745599305,7.12675200318419e-07
0.5390000000000004,-0.006962367133014097,-0.005251436046643177,-0.0055073497838128375,-2.043838805870573e-05,-0.00016495998073713062,-9.810185913957683,1.0000005206671867,1.0000000236429103,1.458592796812437e-07
0.5400000000000004,-0.005781447358887936,-0.006504916765847373,-0.003770457200058632,-5.017666702235277e-05,2.441092535358018e-05,-9.80997053040644,0.9999999106257983,0.9999995592832099,3.20401520057389e-07
0.5410000000000004,-0.007042775263707894,-0.006755794669855937,-0.004520107026798402,3.794891258950283e-05,7.060143587560099e-05,-9.810076965390676,1.0000005779750776,1.0000000112445735,3.3187751164308234e-07
0.5420000000000004,-0.0049162798815563045,-0.005248117346954865,-0.0050540171796329405,7.567570946164115e-05,-4.460556564202092e-05,-9.810027277120312,1.0000004802516946,0.9999992208258922,4.5436764180389576e-07
0.5430000000000004,-0.004521620887277353,-0.004484914547406246,-0.005378653633346268,-1.6657001762412197e-05,0.00014652481632362532,-9.810034357260005,1.000000402387862,1.0000002592363908,2.3581459173687516e-08
0.5440000000000004,-0.00573332916084682,-0.0048513241523839516,-0.004950979635616343,0.00012063297131621647,-6.174779196841159e-05,-9.810092225749207,1.0000004329923173,0.9999999058138906,6.911146526484233e-07
0.5450000000000004,-0.006138640517534027,-0.0069383972572715225,-0.003873419811152518,1.678845760196852e-05,-0.0001762867262364415,-9.810072516914044,1.0000002996327624,0.9999992381580188,1.262300048976042e-07
0.5460000000000004,-0.004762283794560104,-0.0059020765645389755,-0.005230693991763759,5.009401849380695e-05,-0.00019284908794684947,-9.810171919001991,1.0000005012582023,1.000000139867156,-7.566356953751021e-07
0.5470000000000004,-0.004917729421712539,-0.005824640560123196,-0.005330093999773102,5.6477493728117934e-05,-0.0001013833528881265,-9.809938765350351,0.9999999093147357,1.0000005583039204,2.2134259258178575e-07
0.5480000000000004,-0.0036821832905677924,-0.004780040897760573,-0.00587589916497134,7.625974153681324e-05,0.00019850406673517084,-9.809935720333042,1.00000023502954,0.9999997041102,-2.0332108987999476e-07
0.5490000000000004,-0.003700239851773581,-0.0049238434939645,-0.006680315114480892,-0.00012323831566371868,-1.7504433853178376e-05,-9.809894031626278,1.0000001676008972,1.0000003150132468,-4.3110610496545557e-07
0.5500000000000004,-0.004502723361614358,-0.006924596268038554,-0.0051101426236377185,4.4351017086033905e-05,0.00011100366262043481,-9.80990764492261,0.9999999298923428,1.0000003703657334,-4.881035322564234e-07
0.5510000000000004,-0.006625301592242693,-0.0054464736314519925,-0.003552030728564622,-5.976190496533969e-05,-4.392695950569627e-05,-9.80994031962961,1.000000635580637,1.0000003125981087,-4.1507733790082564e-07
0.5520000000000004,-0.007601809540527582,-0.0067788321505968425,-0.006810806812943827,-0.00013086825777069042,2.3876619055877943e-05,-9.810087227588928,1.0000008588799134,0.9999998939651972,-2.1712960259517289e-07
0.5530000000000004,-0.0052346296979208255,-0.005245908714187312,-0.004802734568118437,-9.859872263127857e-05,-7.654570875892199e-05,-9.810064804329228,0.9999999892940051,0.9999997754471724,4.59127792988626e-07
0.5540000000000004,-0.0065524964328102335,-0.0066690283019145615,-0.007431792047824402,0.00011832702501214086,3.5750705666947085e-05,-9.809998497708223,0.9999996358805205,1.0000002072722103,-9.510040911585039e-08
0.5550000000000004,-0.004191898659794225,-0.0057112025466897354,-0.00514257893945566,-0.00012418712658527766,-0.0001555381800082252,-9.810095963330793,0.999999959045056,0.9999994097929203,8.004118307943802e-07
0.5560000000000004,-0.006520072490585158,-0.00659383218445321,-0.003905477843794178,6.901228950076754e-05,-0.00013663255259896873,-9.8101116583328,1.000000627922923,1.000000654072017,-4.359801388155632e-07
0.5570000000000004,-0.005205236211695293,-0.005643841678641853,-0.005842195013360737,0.0001279824055370631,0.00012664531066883006,-9.809824691370247,0.9999999863368086,0.9999993024040966,-1.0120138892132781e-06
0.5580000000000004,-0.004741007137661639,-0.0074162983368764234,-0.005553851595722675,7.185879220948118e-05,0.00016553837343997768,-9.809996108872017,1.0000002961802208,0.9999994990899705,5.438729712469683e-07
0.5590000000000004,-0.004787929729114988,-0.005624230055223778,-0.00536411098255333,0.00021292326446697787,0.00013861297232477536,-9.810214095112828,0.9999991815872674,0.9999999155165632,-3.013217648401513e-07
0.5600000000000004,-0.005672856752996561,-0.005474323749605654,-0.006284620444183419,-1.7026322507231694e-05,3.645404772064524e-05,-9.809998492286038,1.000000713683913,0.9999990323350711,1.1197705843089545e-06
0.5610000000000004,-0.005635206624425979,-0.006254867669454382,-0.00517334229132369,-8.475979097930993e-05,0.00022052205041817507,-9.809801239622253,0.9999994082684512,1.0000009473021914,-2.9250240643211317e-07
0.5620000000000004,-0.0039549324725889675,-0.005845986046491868,-0.005017947397588967,0.00010047489954208817,3.063947684035218e-05,-9.810029109450191,1.0000000962912678,0.9999999159021904,-5.576651414365395e-07
